Time,angular_velocity.x,angular_velocity.y,angular_velocity.z,linear_acceleration.x,linear_acceleration.y,linear_acceleration.z
1520531124.1537175,-0.3594956052649426,0.0297280333076948,-0.0451253614505243,0.8539303751324858,0.9136831761658712,10.3899324038879
1520531124.158733,-0.3597696896650832,-0.0018078813226493,-0.0207453114136763,0.945325521316986,0.985624483413334,10.308784726403404
1520531124.1637466,-0.3512484130874453,-0.0371451027784017,0.009812058805379,1.0415309383533022,1.001205816120534,10.20905088437043
1520531124.1687627,-0.339713052096654,-0.0756958421717572,0.0438564710534892,1.143749193954388,1.007193557140608,10.17899650902247
1520531124.1737783,-0.3239009104544758,-0.1133824091361104,0.0822283525963354,1.0667848603253351,0.9820176024866716,10.114690127321726
1520531124.1787946,-0.3015568457676063,-0.151938384545055,0.1197697923904948,1.024694990371947,0.9160681572977244,10.091921238870992
1520531124.1838105,-0.2812254494446801,-0.1884387019927234,0.1511079719622635,0.8707663231138412,0.763789311999758,10.029650074696214
1520531124.1888266,-0.2578705400699176,-0.2161831903958843,0.1776374172878418,0.7312684684111828,0.6462844150611896,9.988123130182023
1520531124.1938417,-0.2317467135337002,-0.2366245002601371,0.1977242042885457,0.6013911554121562,0.5419693135004461,9.923246803400293
1520531124.1988575,-0.2061184317885307,-0.2468449672171202,0.2095028099486897,0.4186008630431554,0.3465236607987665,9.871757952380705
1520531124.2038736,-0.1819891730050417,-0.2450944926320394,0.2121768019855127,0.2574567895073261,0.190647956190349,9.864181292410528
1520531124.2088883,-0.1578574364775496,-0.2363274795977595,0.2062466794009264,0.1275794765082993,0.0707440291252382,9.864400228475317
1520531124.2139037,-0.138254210650159,-0.2254963235537385,0.1906008671799466,0.0157406792035821,-0.04436474114569,9.874898206924682
1520531124.2189195,-0.1199115130349991,-0.2126033867332738,0.1665860273995524,0.0109304083517662,-0.1378973195320356,9.922684137734844
1520531124.223935,-0.1045950452867988,-0.2064083764895711,0.1406318360649849,0.1480231276285166,-0.1379079967679994,9.966673375516796
1520531124.2289517,-0.0887797670118273,-0.2042983801654279,0.1168099552567503,0.2177720549798458,-0.0731598461816508,10.000795656551162
1520531124.2339666,-0.0722047038069309,-0.2004514362079873,0.0973287471249791,0.3187877428679776,-0.015608973294859,9.895163347647651
1520531124.238983,-0.053871034936397,-0.1977729833262655,0.0791881090685764,0.382523831654537,0.0359491009337708,9.781764734510066
1520531124.2439976,-0.0355317834090728,-0.1927714669679463,0.064041260549564,0.3945495087840766,0.0659266749194466,9.738619124158454
1520531124.2490137,-0.0134144715810768,-0.1819429685238476,0.0497435105753772,0.3680930190990896,0.109097790681531,9.67956519752167
1520531124.2540295,0.0074488081169556,-0.169952337972557,0.0365391701423903,0.4210059984690635,0.1042971079494374,9.631406950272927
1520531124.2590446,0.0260471444138616,-0.1597079869606276,0.0222435081233828,0.4041700504877081,0.0659259256397298,9.631608239918885
1520531124.2640595,0.0438998954918091,-0.1448083347582473,0.0104197287022537,0.3175851751550236,0.0119713501036016,9.656908647286416
1520531124.2690756,0.0600006350267047,-0.125835087380033,0.0005241608096668,0.2766978729145894,-0.0228005377365754,9.664313393768465
1520531124.2740915,0.0743410046961477,-0.1086144785097068,-0.0080287490523721,0.1744796173135034,-0.0779530361165769,9.6665242571244
1520531124.2791066,0.0841555765484819,-0.0928511076134597,-0.0171254651138778,0.0614382522958321,-0.1355029724037227,9.675815668391987
1520531124.2841225,0.0934723022857464,-0.0735913193007813,-0.0261945707051258,-0.0696416284161485,-0.1966489250616383,9.695745459111691
1520531124.2891386,0.0997734028841176,-0.0525763925490999,-0.0382207419601739,-0.2572421916369649,-0.294963828827017,9.720910212817047
1520531124.2941537,0.0990369993684592,-0.0298042604917433,-0.0545492407861873,-0.4051580203303007,-0.4028749467585302,9.74802234228277
1520531124.2991695,0.0995541497090446,-0.0064364837739399,-0.075474907288259,-0.5085788436443406,-0.4832093003702372,9.79791736894236
1520531124.3041856,0.094030444713179,0.0081801098813983,-0.0937506060320944,-0.5109839790702486,-0.4652220066991152,9.960623392557144
1520531124.3092003,0.0877435086995526,0.0131683354412935,-0.1074989861910112,-0.4977557342277552,-0.4136599987519722,10.027848704693428
1520531124.3142157,0.0819552891045101,0.0117302728283368,-0.1153451979634545,-0.4448427548577813,-0.3501096773495321,9.993569532558086
1520531124.3192315,0.0784281473995253,0.0114659187351048,-0.1258921768631137,-0.470096676829814,-0.3189300594815411,9.979839208471915
1520531124.3242476,0.0726453419055537,0.014985763672534,-0.1353238715607014,-0.470096676829814,-0.3225274807517797,9.919411230870272
1520531124.3292625,0.067111192873079,0.0155874912061692,-0.1431549884592489,-0.4496530257095972,-0.3489101622862609,9.911102962694985
1520531124.3342786,0.0613272896693868,0.0191109782989374,-0.1539394126363427,-0.428006806876426,-0.3716955162104681,9.853969435368318
1520531124.339295,0.053280560104346,0.0243935413526728,-0.1690350321265569,-0.4171836974598404,-0.4424456441315089,9.829528057837608
1520531124.3443096,0.0432135839804197,0.0220978621903239,-0.1836436262568473,-0.4328170777282418,-0.5287825370376958,9.835575135768222
1520531124.3493245,0.0313780639528839,0.0154423808268749,-0.202611033938302,-0.3931323432007612,-0.6235177212661442,9.91663132350222
1520531124.3543415,0.0162645800775427,0.0035538098093324,-0.2264822158790243,-0.3221808481364783,-0.6846794087981118,10.033376900850932
1520531124.3593554,-0.0036266159478655,-0.0100827537340558,-0.2511695062771527,-0.2584447593499188,-0.7122646025147314,10.099025633053571
1520531124.3643706,-0.0237765478350238,-0.0298414045304077,-0.2748208311599062,-0.1490110974711094,-0.6798963341393622,10.1258203556603
1520531124.3693905,-0.0449337410920894,-0.0504716890065338,-0.2995591419891081,-0.0720467638420565,-0.6199453072064529,10.201714266064997
1520531124.3744037,-0.0670954749718076,-0.0725680311141048,-0.3210601506009579,0.0710587939994638,-0.5480080273374672,10.161900453506057
1520531124.3794186,-0.0859769162862603,-0.0888536135304712,-0.3357591175116122,0.1901129975819047,-0.4604800487648225,10.152521283475096
1520531124.3844345,-0.1045984377853173,-0.0996064336280701,-0.3490635830451497,0.285115846905267,-0.3621579331821701,10.121284955389251
1520531124.3894506,-0.1219640453851011,-0.1138692159657636,-0.3572566871966353,0.3248005814327473,-0.2722254922050364,10.083622381548446
1520531124.3944645,-0.1375696359593954,-0.1269635857122903,-0.3662558037574854,0.3500545034047803,-0.1978807528126949,10.032169742344372
1520531124.3994815,-0.147393122787513,-0.1432827737136144,-0.3671737320149446,0.40777775362657,-0.1271359635096361,10.016431037215332
1520531124.4044976,-0.1559601194023192,-0.1610649479533047,-0.3656701962521971,0.4137905921913397,-0.0300060575130165,9.969792037285211
1520531124.4095123,-0.1597424647687718,-0.1765367566824619,-0.3557708207761899,0.4137905921913397,0.0839122827112062,9.818602236008008
1520531124.4145277,-0.1569781581196222,-0.1856093861573801,-0.3406943002063026,0.3368262585622869,0.1750529491283184,9.68212950323846
1520531124.4195445,-0.1474174805413533,-0.1879847975156146,-0.3228737912436082,0.2935338208959448,0.2350133420576874,9.59184518987823
1520531124.4245577,-0.135839602597978,-0.1889185240765428,-0.2990938909307092,0.2514439509425563,0.2589994286247057,9.522502842815008
1520531124.4295745,-0.1192338113851675,-0.1881005175007445,-0.2758510783631817,0.261064492646188,0.2506046963810988,9.474769485615363
1520531124.4345906,-0.0988614388353971,-0.1884422016145856,-0.2542474343613697,0.2730901697757275,0.2841796916370133,9.49786257263649
1520531124.439607,-0.0747195015375052,-0.1908315701902332,-0.2291492561590786,0.3320159877104711,0.3357381405055016,9.527454486093564
1520531124.4446216,-0.0513377098737634,-0.1984690693480492,-0.2030075097389412,0.4667035715613136,0.3956846717601105,9.514463613269148
1520531124.4496386,-0.0254495750279471,-0.2116448036932844,-0.1758304855887942,0.5737320980142153,0.4868110082026397,9.574926623037848
1520531124.4546523,0.0006818923543516,-0.231818767255482,-0.1468134609380401,0.6795580567541629,0.5659460340710049,9.62030515985062
1520531124.4596686,0.027057045113096,-0.2584067341179205,-0.116493081407862,0.8178533437438673,0.690645867210015,9.643242490118237
1520531124.4646835,0.0554417103367717,-0.2849909996117542,-0.0872586192474594,0.899627948224736,0.7853715917820393,9.70975851782523
1520531124.4696996,0.08508472014963,-0.3092393260231297,-0.0596319813963441,0.945325521316986,0.8717061431891114,9.73247241233944
1520531124.4747145,0.1152372393255134,-0.3267783270850072,-0.0346606049886633,0.9753897141408348,0.8980848910050798,9.672884718800116
1520531124.4797306,0.143893538598765,-0.3349899718514233,-0.0109680189909539,1.0150744486683152,0.954441400126653,9.655011333680026
1520531124.4847465,0.1753254393321134,-0.3321155382415984,0.0082046300622143,1.0271001257978547,0.9628344464908972,9.640940370290387
1520531124.4897623,0.2022425860603074,-0.3222467344522232,0.0263568505980915,1.0102641778164994,0.9676323194240528,9.607397389051002
1520531124.4947765,0.2261464324349371,-0.3115086007028085,0.0458740705486595,1.023492422658993,0.9232630934981662,9.59452831548614
1520531124.4997926,0.2472839726901338,-0.3004721526953136,0.062422642685608,1.0054539069646835,0.8908877069654877,9.631924070027283
1520531124.504809,0.267917594103358,-0.2908950095285699,0.079772670530255,0.9874153912703744,0.8537157587391575,9.636784471207298
1520531124.5098245,0.2832744301758368,-0.2786872751476162,0.0933648647887687,0.9838076881315124,0.7793693334674533,9.60783848655458
1520531124.5148396,0.2976348291484191,-0.2588988378617396,0.1051229048871083,0.9597563338724336,0.7469944152345978,9.568591265399396
1520531124.5198555,0.3062136497026381,-0.2364727219620582,0.1104185858868451,0.9224767347708612,0.6882394379462695,9.495796350656038
1520531124.5248706,0.3122839277232103,-0.2099645650803541,0.1143973278341232,0.8948176773729202,0.6606613623869592,9.439147407999853
1520531124.5298865,0.3130829207480334,-0.1764535922129111,0.1141104906831093,0.8695637554008872,0.6954384015251889,9.469575046156258
1520531124.5349016,0.3118787876849596,-0.1356500526346657,0.1106364137001909,0.8551329428454397,0.7002360871384155,9.47435940529325
1520531124.539919,0.3054009389362274,-0.0936895983932342,0.1096159433103197,0.8635509168361175,0.7374087846444624,9.498646243420128
1520531124.5449326,0.2933971975049714,-0.0505694142198873,0.1099673626531621,0.8851971356692885,0.7721821710440728,9.515833800879502
1520531124.5499496,0.2808840408188779,-0.0118172811427458,0.1092041855792984,0.875576593965657,0.7793777628642669,9.58448691859434
1520531124.5549655,0.2613269897095892,0.0199323106445888,0.1108356357727126,0.8948176773729202,0.7769779834580076,9.614517719179718
1520531124.5599806,0.2387492443360374,0.0461364022051126,0.1154064528794141,0.8707663231138412,0.752997048189042,9.6368559422234
1520531124.5649955,0.2136543707002318,0.0676700724628553,0.1226518268128877,0.8166507760309134,0.7158279097616499,9.63741891927932
1520531124.5700116,0.1820196155913911,0.0860017805248349,0.1277205144458004,0.7986122603366042,0.658270574337301,9.666704222265178
1520531124.5750277,0.1508900534542253,0.1060812642305874,0.1330721530399291,0.752914687244354,0.5887239888580091,9.740431905201662
1520531124.5800436,0.1154851102291314,0.1232430436259989,0.1392211327642782,0.6843683276059787,0.5023912169902643,9.838803377998342
1520531124.5850585,0.0783080986329292,0.131666240169171,0.1439539575127326,0.6386707545137286,0.4184549464300179,9.90208579741785
1520531124.5900743,0.03684951172027,0.1360214913452546,0.1437937672362431,0.5821500720048929,0.3177315528816727,10.072407176882848
1520531124.5950885,-0.0058719517827349,0.1345434606802974,0.1454852701412272,0.4667035715613136,0.2601818039144561,10.19677424973098
1520531124.6001046,-0.053378733024188,0.127830292765861,0.1428168909183739,0.3308134199975172,0.2601923874904553,10.317797748391722
1520531124.605121,-0.1003872290666834,0.1176192505728578,0.1406619930170655,0.3103697688772999,0.2290163287011187,10.427268668868058
1520531124.6101365,-0.1478956372778015,0.1100333859386784,0.1374458527464811,0.2334054352482473,0.1942472506598796,10.48964533289119
1520531124.6151505,-0.197666436698511,0.1027416618872558,0.132883406591142,0.1732770496005495,0.1894553719644578,10.492559550977942
1520531124.6201675,-0.2429051460332643,0.101862169636027,0.12836146729373,0.1504282630544244,0.2218339429359327,10.44045389695044
1520531124.6251836,-0.2868861694046672,0.10332080176046,0.1214200659993271,0.1203640702305757,0.2602087779842594,10.397709778199
1520531124.6301997,-0.3306173444966653,0.1041989485790524,0.1136621141233299,0.1480231276285166,0.238622096183642,10.364921579289554
1520531124.6352136,-0.3678128603987911,0.1056587821409753,0.1072492030924038,0.1540359661932864,0.2997777894778755,10.306696219994734
1520531124.6402297,-0.4014857939905337,0.1100323824912749,0.1013930805805775,0.2165694872668919,0.314162604240671,10.264236342637682
1520531124.6452446,-0.4331574048840262,0.1059486064526684,0.0984447596635161,0.282710711479359,0.3117591720957925,10.225244152723503
1520531124.6502626,-0.4587993414831723,0.1001159724590336,0.0965540824596905,0.3644853159602277,0.2997613989840714,10.227946334141674
1520531124.6552763,-0.4826861890199179,0.0916630237706903,0.0940990386333768,0.4366393787374648,0.3093489027734987,10.210964660683032
1520531124.6602926,-0.5018021890573506,0.0794195762964245,0.0932295023312908,0.4859446549685768,0.3321287307597948,10.091923852593462
1520531124.6653075,-0.5156428072496281,0.0651355909732126,0.0934167868269449,0.5653141240235376,0.336919110895783,9.993526549357922
1520531124.6703246,-0.5242022805878477,0.0528897227520872,0.0949625612105745,0.6663298119116695,0.3261189796480412,9.920500923509778
1520531124.6753397,-0.5274766965068468,0.044425179779331,0.0997739852653458,0.7132299527168736,0.3237170460625962,9.816615953062149
1520531124.6803546,-0.5259742353215925,0.0374187016672634,0.1048582029004112,0.6927863015966563,0.2937401276966725,9.712251216622915
1520531124.6853707,-0.5184410413221029,0.0304160433503318,0.1093901273851624,0.6506964316432682,0.2589683335164601,9.63018258368652
1520531124.6903863,-0.5063813477577095,0.0245755963248474,0.1158163644635768,0.6735452181893932,0.2361828859322883,9.542821608493732
1520531124.6954017,-0.4945705733187195,0.0219468365236533,0.119832609140557,0.6458861607914522,0.1690331764003532,9.51294056497982
1520531124.7004175,-0.4797389791817098,0.02252157426491,0.1249498906602916,0.580947504291939,0.1090812128677977,9.489226081950722
1520531124.7054336,-0.4596229783870498,0.0298067795798888,0.1276735888903379,0.5520858791810441,0.0934946352025807,9.391902112560793
1520531124.7104485,-0.4384971169768538,0.041174675823406,0.1293443598380284,0.503983170662886,0.061121590169017,9.354051136488351
1520531124.7154627,-0.4133536380645159,0.0516765496533216,0.1285660808943377,0.4426522173022346,0.0215547328545866,9.27914732553709
1520531124.720481,-0.3879652819578246,0.0581020522809498,0.1266740284494366,0.4402470818763268,-0.0180167137981089,9.274560748028303
1520531124.7254946,-0.3583093738256614,0.0624953644102787,0.1225941129445461,0.4222085661820174,-0.0563878024478518,9.28639518227288
1520531124.7305105,-0.3283944710999725,0.0712537154560002,0.1207114441632379,0.3584724773954579,-0.1403226681086292,9.310340283095332
1520531124.7355256,-0.2984807954498922,0.0808942328253463,0.1158594397829449,0.1889104298689508,-0.2050630449179163,9.296945968966073
1520531124.7405417,-0.2645520858147746,0.0923115845966254,0.1010031081938228,0.1143512316658059,-0.2806030846751224,9.25707031243956
1520531124.7455566,-0.2288624300001663,0.107528550877521,0.0821142212123075,-0.0010952687777732,-0.394512433542744,9.210657182962215
1520531124.7505746,-0.1954417203279034,0.118378233735555,0.0615729130851829,-0.0696416284161485,-0.5252134010767651,9.228883988470017
1520531124.7555895,-0.1547452587275434,0.1237090344070889,0.0355649134442832,-0.1165417692213526,-0.6031538758599824,9.264280811348444
1520531124.7606056,-0.1130517837132487,0.1235061081754282,0.0087011706017124,-0.0407800033052536,-0.6463288316806153,9.283341936228302
1520531124.7656186,-0.0756350149028087,0.1174628911876839,-0.0141409112129192,0.0157406792035821,-0.6427358124287126,9.323463328956189
1520531124.770635,-0.0324455042701258,0.1047135386700515,-0.0346099455618006,0.0325766271849372,-0.6127586130828953,9.286081618149964
1520531124.7756517,0.0104907669136721,0.0887508451549099,-0.0521269622709027,0.1095409608139903,-0.5600024286904629,9.274821748023726
1520531124.7806666,0.0559446446334433,0.0757007961749105,-0.0688147776719184,0.1828975913041812,-0.4592803463816222,9.2344966206413
1520531124.7856803,0.0993973995362531,0.063790002572376,-0.076020860588982,0.3175851751550236,-0.3393767939563696,9.213312273174866
1520531124.7906983,0.1428592889567906,0.0524342976438506,-0.0729417532911797,0.5412627697644586,-0.1595231511978536,9.240013330647606
1520531124.7957125,0.1825602110227277,0.0398780699439094,-0.0574194262740892,0.6795580567541629,0.0179388605713227,9.272196361621983
1520531124.8007295,0.220002376051805,0.0237988467292051,-0.0324504694147287,0.7156350881427814,0.110269863375176,9.29034947407448
1520531124.8057437,0.2511574952305445,0.0045126607568048,-0.0077648443078919,0.728863332985275,0.2337802967270912,9.358666769810002
1520531124.8107605,0.2830711722636005,-0.0121544112586735,0.0182921178764233,0.6927863015966563,0.2589650554176993,9.36480408514964
1520531124.815775,0.3102155817129151,-0.0253289248951325,0.0451962625143124,0.6603169733468996,0.2517727416962662,9.39185644865569
1520531124.820793,0.3343503054522206,-0.0323775321831951,0.0691766877680452,0.6482912962173603,0.2313882910978933,9.41174982520892
1520531124.8258066,0.3577285883769877,-0.0385398979278514,0.0885659022171997,0.6518989993562221,0.2050069208029163,9.415226867365792
1520531124.8308225,0.3780908070789731,-0.0429456683713691,0.1044569592107516,0.6314553482360049,0.1954153896350115,9.295734380754467
1520531124.8358386,0.3951944601353772,-0.0397701651477033,0.1179769707617689,0.5965808845603403,0.2062103695847006,9.283279719841172
1520531124.8408546,0.4097872380085436,-0.0345537694952006,0.1307055734549628,0.6062014262639719,0.1510491608279917,9.216997663604758
1520531124.8458686,0.4198582678599135,-0.0270029708066304,0.1415665405782085,0.6001885876992021,0.1450539270107504,9.169414133460153
1520531124.850885,0.4276691529073578,-0.0165312002032606,0.1494779342090785,0.5845552074308008,0.1222714765454456,9.191669251769603
1520531124.8559003,0.4359826826670729,-0.0048885955621613,0.1555034654633355,0.5472756083292283,0.0815036056083104,9.271097654940204
1520531124.8609166,0.4370039281381335,0.0038394938885037,0.1607086631516612,0.5003754675240243,-0.0096274138324486,9.346020234993828
1520531124.8659306,0.4352504229234353,0.0076253466923839,0.1612819221153876,0.4246137016079253,-0.0431974451102394,9.481599093737094
1520531124.8709476,0.4319852161011749,0.011130879132806,0.1575270239990125,0.357269909682504,-0.0539844639629379,9.615911655685409
1520531124.8759625,0.4236895046281126,0.0126005782198867,0.151601531583687,0.3079646334513921,-0.0995479599940787,9.801216886611217
1520531124.8809786,0.4113642615374395,0.0094145623233601,0.1426719325208356,0.2490388155166485,-0.1475089875923283,9.93083518686441
1520531124.8859937,0.3960178968950081,0.0050749386103823,0.1288692156697795,0.185302726730089,-0.1499023044610304,10.052320864772293
1520531124.8910103,0.3781530906707895,-0.002467257302895,0.113693982633525,0.1311871796471613,-0.128313562141192,10.220175273612533
1520531124.8960245,0.3580217140757794,-0.0126284294752767,0.0968796669635187,0.1035281222492203,-0.149895935583438,10.405246426737673
1520531124.9010396,0.3315994653091941,-0.0283254553304942,0.0789525971708083,0.0722613617124177,-0.14629607915412,10.563598827960805
1520531124.9060566,0.3046727253187291,-0.0460652835121165,0.0620930828110784,0.1095409608139903,-0.1391041400725451,10.61901186497861
1520531124.9110715,0.2782551379191948,-0.0591434907770369,0.0455387502656604,0.1396051536378391,-0.111526251833164,10.555936570237378
1520531124.916087,0.2493290040538828,-0.0696031355760095,0.030091276304347,0.1347948827860232,-0.0467722943290106,10.472245881439823
1520531124.9211037,0.2216619557153801,-0.0797781878806587,0.0173491507709988,0.1841001590171351,0.0023886229723686,10.41825940932303
1520531124.9261186,0.1962684247102173,-0.0838449339093671,0.0089782438541297,0.2177720549798458,0.0323645110786817,10.312147334427914
1520531124.9311357,0.1698718977402729,-0.0864558795548455,0.0008908651527952,0.2057463778503061,0.0935216092723841,10.18320676977212
1520531124.9361506,0.1472509259335588,-0.0841096261100162,-0.0079773596350498,0.2382157061000629,0.1378872761196162,10.104983822763693
1520531124.9411657,0.1228772329717357,-0.0803217078388703,-0.0114202840154231,0.25865935722028,0.1031106116212449,10.043225118069074
1520531124.9461806,0.0985117219123317,-0.0709996688423629,-0.0140093320872105,0.2803055760534512,0.0995115044716435,10.019775055986768
1520531124.951197,0.0738937280701934,-0.0610884033672012,-0.0190283803282185,0.2803055760534512,0.1127020491291851,9.970952147177815
1520531124.9562123,0.0525381771810983,-0.0537954049913624,-0.0251556873231448,0.3199903105809315,0.0647333414138386,9.932261903396508
1520531124.9612286,0.0286728919404486,-0.0447579977314543,-0.0301828049898955,0.3175851751550236,0.0659326691571807,9.91833841671948
1520531124.9662426,0.0063166306820693,-0.035138687545846,-0.0346671850338525,0.285115846905267,0.0575412150123347,9.898906191396014
1520531124.9712596,-0.0155403299794258,-0.0269717324992119,-0.0407868893263075,0.3127749043032078,0.0503442182926717,9.831239641788995
1520531124.9762757,-0.0348792881430221,-0.0156007483901426,-0.0460751692253665,0.3187877428679776,0.039551486182133,9.799813753796196
1520531124.9812906,-0.0542129733678285,-0.0027837681106259,-0.0472941452593591,0.3536622065436422,0.055137595547527,9.756459779443484
1520531124.986307,-0.0707819245245114,0.012959795349863,-0.0528247587306601,0.3680930190990896,0.0527381907811261,9.752835225582208
1520531124.9913216,-0.0850892332734915,0.0275336077835809,-0.0564746437813327,0.3777135608027212,0.0575340031950609,9.742277612185829
1520531124.9963365,-0.0968828480516609,0.0432768566061584,-0.061202487307085,0.3993597796358923,0.0395452109645051,9.710706574494983
1520531125.0013523,-0.1091810363655043,0.0590264643972628,-0.0683643104494059,0.4426522173022346,0.0551306647101469,9.64751421752556
1520531125.0063696,-0.1187144082994298,0.0756534940744078,-0.0763362359794861,0.4546778944317741,0.0803116770021714,9.663642626196122
1520531125.0113845,-0.128248313425431,0.089940706360396,-0.0810793954412283,0.4534753267188202,0.0899048940494389,9.714779310524191
1520531125.016399,-0.1360284075508646,0.0998556546325792,-0.0850475305578099,0.4655010038483596,0.1366704339628949,9.733210958996697
1520531125.0214145,-0.1385363698383422,0.1074481501324048,-0.091478164608677,0.5099960092276559,0.1582514961656366,9.739729687527744
1520531125.0264306,-0.1410418348526402,0.1129834715955529,-0.0914312587550816,0.5148062800794716,0.1954244746515772,9.801240247358914
1520531125.0314476,-0.1443115854724571,0.1086012257291684,-0.087670895089581,0.5340473634867349,0.2397911717584199,9.812631140446047
1520531125.0364623,-0.1428054312639845,0.1033386841944513,-0.0809500635672507,0.5689218271623995,0.2385893151960338,9.83088716641644
1520531125.0414786,-0.1433062843830017,0.0989422242866014,-0.0715133700438087,0.5641115563105836,0.2553776557636723,9.772810418181692
1520531125.0464926,-0.1402863193914507,0.0945384015835213,-0.0588366598953505,0.578542368866031,0.3009438679337863,9.788895537972158
1520531125.051509,-0.1345025965398711,0.0892593230163177,-0.0453601152711018,0.5653141240235376,0.3297242683553057,9.78202336572554
1520531125.0565257,-0.1274670840318627,0.0816547595259539,-0.0337975102169951,0.55689615003286,0.3585042941369668,9.77161794139056
1520531125.0615396,-0.1196743309212025,0.0766736805789191,-0.0224868434608173,0.4149931599042937,0.2985583248421455,9.812570499454797
1520531125.0665543,-0.1078653598718593,0.0728801110996213,-0.0187500370209767,0.3620801805343199,0.2074277737012095,9.765526489597544
1520531125.0715706,-0.0983161807864785,0.0725917394518445,-0.0184994496946953,0.3801186962286291,0.2362057389636495,9.754863554021185
1520531125.0765877,-0.087757094031468,0.0775566958592524,-0.0211867185808401,0.3223954460068395,0.2386085154887758,9.712423731745035
1520531125.0816035,-0.0746825530379627,0.0851487397230521,-0.025211376411418,0.2490388155166485,0.1978434543505785,9.692258906545586
1520531125.086619,-0.0613587361469597,0.0915768007953575,-0.029786485098308,0.2310002998223392,0.1702646295115513,9.715704256279103
1520531125.0916336,-0.0465345985717877,0.0951032622250691,-0.0387153593123416,0.2863184146182209,0.1522732148019869,9.714021219818024
1520531125.0966475,-0.035228472116004,0.0974569797194831,-0.0454822245746051,0.3741058576638594,0.1654569222821131,9.80147682848781
1520531125.1016643,-0.0244358616965952,0.089016889464824,-0.0477311303164598,0.3416365294141027,0.1714551532182215,9.84478634462118
1520531125.1066806,-0.0151489311440702,0.0826180854611686,-0.0507733118092232,0.3873341025063528,0.1894387004907599,9.79667611026525
1520531125.1116955,-0.004103834009796,0.0750522472439299,-0.0530160150184204,0.4282214047467871,0.1918337968987895,9.855545141333431
1520531125.116711,0.0034305518076013,0.0703872210249517,-0.0509012189143036,0.457083029857682,0.2158143575278966,9.804106499208569
1520531125.1217277,0.013231202209921,0.0689275822750026,-0.0484956234853219,0.5208191186442414,0.2182076743965988,9.844158830937149
1520531125.1267426,0.0215237459875784,0.0651268069695788,-0.0425879157524731,0.5448704729033204,0.2805611032147762,9.806675317632626
1520531125.1317585,0.0285599720397749,0.0616176523448072,-0.0369461972138592,0.5845552074308008,0.3297227697958723,9.81902469135773
1520531125.1367736,0.036608775522631,0.0601332861808288,-0.0256093201572377,0.5893654782826167,0.384882854633006,9.759654739861368
1520531125.1417897,0.0413931131208532,0.0601031058691372,-0.0137141684797385,0.5881629105696626,0.4328485652294854,9.727079640629672
1520531125.1468036,0.044412513594759,0.058042742712553,-0.0056189538791245,0.5388576343385506,0.3920816308919961,9.727599305477638
1520531125.1518216,0.0479376794222468,0.0583136526853952,0.0024931119574234,0.5111985769406099,0.3681009766029244,9.762756227187008
1520531125.1568365,0.051207943573484,0.057718323362563,0.0076229704064005,0.4390445141633727,0.3273358218047625,9.825091917680687
1520531125.1618526,0.0554729786651213,0.0504259143205679,0.0110765556247644,0.3921443733581686,0.2541919087151966,9.852349055522582
1520531125.1668656,0.0554661571363295,0.0445945816193711,0.0123848233980788,0.3115723365902539,0.1978385840324195,9.83459394998037
1520531125.1718843,0.0574702986221527,0.0393475340481613,0.0134232576599406,0.2670773312109575,0.1810540835233293,9.838529839680296
1520531125.1768997,0.0599798604858569,0.038774490721806,0.0101675935057934,0.261064492646188,0.10071214345449,9.742208762491968
1520531125.1819146,0.062746880149478,0.0425715853293179,0.0072153548039199,0.20694894556326,0.0647421454505106,9.702095531810972
1520531125.1869297,0.0657623014749514,0.0466710893856815,0.0002066840255663,0.140807721350793,0.0323705053164158,9.664420131584928
1520531125.1919456,0.068029722620081,0.055433907374242,-0.0073061090098224,0.1251743410823915,-0.0155938940405592,9.650673343437829
1520531125.1969604,0.0700454920961591,0.0636124009905393,-0.0142817897007565,0.0927050128326349,-0.0455698758068369,9.592911415731622
1520531125.2019763,0.0718046898043589,0.0703447999808476,-0.0253263075334858,0.0927050128326349,-0.1031286161306547,9.56158965725169
1520531125.2069926,0.0733109617138052,0.0762044037958712,-0.0369181196906749,0.0830844711290033,-0.1163184115084796,9.601209054878298
1520531125.2120075,0.0738032800904403,0.0744825170616382,-0.0466720439015195,0.1347948827860232,-0.062361119833378,9.634355291858084
1520531125.217023,0.0737911895549898,0.0686686667060688,-0.0518568776298346,0.140807721350793,-0.0095994095030346,9.694676801268365
1520531125.2220397,0.0742755768967195,0.0567286538777539,-0.0543838706371815,0.1841001590171351,0.0503542399088834,9.665143353419056
1520531125.2270546,0.0752668704237142,0.046823430634098,-0.0550024142225952,0.2334054352482473,0.1151039827146301,9.707599628092204
1520531125.2320695,0.0782772578815183,0.0404024976030697,-0.0507281884442423,0.261064492646188,0.1534743220846563,9.739833023656544
1520531125.2370856,0.08053023224882,0.0325294455864266,-0.0483574991939319,0.3043569303125302,0.2182245331902259,9.700997746816489
1520531125.2421017,0.0822810441097019,0.0231912612804897,-0.0430209870687133,0.2995466594607143,0.2649913843431862,9.697512530948796
1520531125.2471166,0.0883007723018141,0.0129871530164931,-0.040133991558147,0.285115846905267,0.287776176307606,9.710414357676578
1520531125.2521336,0.0928269582165866,0.0118088184857157,-0.0347403670002445,0.2923312531829907,0.2865764739244055,9.754506766937595
1520531125.2571497,0.0968488763815544,0.0100504317135403,-0.0304324387500235,0.2899261177570829,0.3081611888657664,9.724293386134258
1520531125.2621636,0.1023810064145694,0.0097481014489439,-0.0255751036210799,0.2766978729145894,0.3225519042063314,9.74300241295146
1520531125.2671795,0.1084176276714643,0.0114885735107524,-0.0217853239251169,0.2658747634980039,0.3489338364610959,9.730298449499392
1520531125.2721956,0.1121936179864518,0.0149808372228498,-0.0196012805832618,0.2754953052016353,0.3417382446409019,9.733698256946136
1520531125.2772105,0.1172298425241938,0.0213881669166524,-0.0176678859005686,0.2791030083404973,0.3177551551927507,9.701146497843716
1520531125.2822266,0.1212607384475629,0.0272101484404991,-0.0149254328077057,0.2406208415259707,0.3381435395096365,9.657339710621786
1520531125.2872417,0.1255396400708589,0.0330431548859045,-0.0162416348766325,0.2273925966834773,0.3309497272287698,9.630746171330932
1520531125.2922575,0.1313271697144995,0.0391666797297173,-0.0170173224080753,0.2382157061000629,0.3069660758208311,9.667852819143102
1520531125.2972727,0.1340893084691253,0.040345684178,-0.0216128442531424,0.2863184146182209,0.3081614698456602,9.64414056846242
1520531125.3022883,0.1386095275615751,0.0409433371915566,-0.0264866252276292,0.3115723365902539,0.3405362944185512,9.68918680433227
1520531125.3073037,0.1403681410914747,0.0427018031479872,-0.0299936504253869,0.3308134199975172,0.364517604327375,9.706408295957743
1520531125.3123195,0.139366066416432,0.0438618484175174,-0.0280890699197547,0.3308134199975172,0.3717124468678523,9.705239135968023
1520531125.3173356,0.1388619711544778,0.0421104306184055,-0.0270192914014646,0.3091672011643459,0.3597227285130863,9.722893679689484
1520531125.3223517,0.1376081585664585,0.0432718342945296,-0.0256553359643635,0.3055594980254842,0.3597230094929801,9.764765977210647
1520531125.3273666,0.1368543052011557,0.042978697538476,-0.0251150670880567,0.3079646334513921,0.3693159455603538,9.799597531010372
1520531125.332383,0.1355938083144945,0.0403572013772672,-0.0256738330312888,0.3187877428679776,0.3885013493952785,9.756474149768437
1520531125.3373976,0.134841883772595,0.0388868716149572,-0.0208137221618006,0.3440416648400106,0.416079612274518,9.764336456460274
1520531125.3424137,0.1330862144640252,0.0379967317918628,-0.0151356605409042,0.3668904513861356,0.449653764590751,9.780351334248252
1520531125.3474276,0.1300699580927379,0.0336073000703419,-0.0086703046396626,0.4510701912929122,0.471231736014661,9.770213780558166
1520531125.3524446,0.1288147223484734,0.0280413645313564,0.002111626191861,0.4462599204410964,0.4892192170057125,9.736540886022771
1520531125.3574605,0.125805146343697,0.0259713541310937,0.012923501109999,0.3921443733581686,0.5024139763616609,9.766108349685686
1520531125.3624756,0.1210317309243248,0.0218675187305993,0.0212881684307581,0.3440416648400106,0.4916254589495288,9.77007350785864
1520531125.3674915,0.1155033683620602,0.018937667245465,0.0264165775117547,0.3115723365902539,0.4820348643812699,9.845938256120393
1520531125.3725076,0.110222701781722,0.0151417733757397,0.0285618457586376,0.2514439509425563,0.470048143145371,9.8465352023342
1520531125.3775225,0.1059461759299798,0.0110570740940916,0.029891386339422,0.2550516540814183,0.4388702111567426,9.858151929527605
1520531125.3825386,0.0994152172969902,0.0113378860355549,0.0328817490846995,0.2935338208959448,0.434070652344224,9.879862780209129
1520531125.3875546,0.09063101376853,0.0168583627820082,0.0375396032503989,0.3007492271736685,0.4448623541951523,9.90999776862702
1520531125.3925695,0.0851055601698947,0.0180166358517881,0.0394525847749149,0.2947363886088987,0.4532568054588654,9.918183116213935
1520531125.3975835,0.075811945318728,0.0206325400181107,0.040572044887345,0.2971415240348065,0.4028927203555956,9.92866811393754
1520531125.4026003,0.0632541703687966,0.0241162188267954,0.0435980629295396,0.2622670603591419,0.4448653513140194,9.942912361150793
1520531125.4076166,0.0524524057710049,0.0246838278270717,0.0476807666393441,0.2815081437664053,0.4556561165653017,9.93922812433207
1520531125.4126306,0.0421493262662276,0.0235084255921487,0.0498553771194398,0.285115846905267,0.4292747462703247,9.970596621390198
1520531125.4176476,0.0328470433746599,0.0194210287685992,0.0514647980615518,0.2718876020627736,0.3633230532422273,9.982411130211812
1520531125.4226637,0.0212817498375002,0.0138736379155066,0.0538789417742615,0.2406208415259707,0.3513340841671781,9.9467006924906
1520531125.4276795,0.0112194624740633,0.0080500218897274,0.050877144144009,0.2658747634980039,0.33814157265038,9.931359877632543
1520531125.4326935,0.0016649594636681,0.0042582817243359,0.0508659795192945,0.3163826074420698,0.3357393580850413,9.949464907208649
1520531125.4377103,-0.0078904687685972,-0.0007011818434304,0.0516575602410454,0.3115723365902539,0.3105577838332294,9.933266268199526
1520531125.4427257,-0.0174434741752152,-0.0027417011207934,0.0505775505445836,0.3296108522845632,0.3309417661317793,9.919125086135258
1520531125.4477396,-0.0267475134023359,-0.0068232704958004,0.0500226043194858,0.2863184146182209,0.3117588911158988,9.927700185274132
1520531125.4527576,-0.0355522559647034,-0.0138206735258565,0.0502561314824531,0.2718876020627736,0.3045651724949967,9.901118351039706
1520531125.4577725,-0.0446087756298791,-0.0190603982438154,0.0469863672338333,0.2430259769518787,0.3189571054151014,9.918817399636229
1520531125.4627876,-0.0503915458661503,-0.0187603517279641,0.0429411365158648,0.285115846905267,0.2553993848754584,9.9219561295042
1520531125.4678023,-0.0549145680176489,-0.0167144194949183,0.0399890942770021,0.2658747634980039,0.2518034621646533,9.838472553720992
1520531125.4728177,-0.0601924510681146,-0.0140801861253693,0.0348785312113628,0.2177720549798458,0.2709934553378431,9.804057727923476
1520531125.4778345,-0.0647106275683185,-0.0061963653115164,0.0281833081360746,0.2261900289705234,0.2829842039522196,9.777234788188954
1520531125.4828506,-0.0667149376098611,0.0016855263334821,0.0225656014116781,0.2682798989239117,0.2889766279705231,9.73381993821168
1520531125.4878654,-0.0667113660882684,0.0072349441112675,0.0177380139063381,0.2442285446648326,0.3129613096380725,9.715436349287703
1520531125.4928815,-0.0707225070373194,0.0162750303414938,0.0145678463724617,0.2394182738130168,0.2913771566564991,9.73293637693319
1520531125.497897,-0.0702106219027407,0.0247326628547491,0.0119259234408848,0.2358105706741549,0.2673946291681355,9.678374113039164
1520531125.5029123,-0.0689498505557797,0.0314510247436857,0.0060227110768216,0.2297977321093853,0.2578019740806555,9.679604136989512
1520531125.5079277,-0.0689430721489505,0.037575198834311,0.0041755745970143,0.2694824666368656,0.2266212322930892,9.759436205789056
1520531125.5129426,-0.0666746042803251,0.0437002590248115,0.0023242376077651,0.3019517948866224,0.2110298779696778,9.723108908095
1520531125.5179596,-0.0649167866064078,0.0434124774105816,0.0012365638759514,0.3416365294141027,0.2458018594698194,9.76336376879236
1520531125.5229757,-0.0636626760967812,0.0387377054923833,0.0060684870208635,0.3704981545249975,0.2529944541711464,9.844425908197971
1520531125.5279915,-0.0654222148485509,0.0358115161335777,0.0103782575650866,0.3584724773954579,0.2422031269600765,9.84455348281548
1520531125.5330076,-0.067689671251381,0.0302684965665952,0.0125045866208562,0.3464468002659185,0.2721825741450443,9.828371284539434
1520531125.5380225,-0.0669383779418754,0.0255942561683813,0.0170668973164098,0.3055594980254842,0.2625926351965375,9.828778611171924
1520531125.5430377,-0.0684497345737369,0.0229712046894952,0.0170496898882514,0.3284082845716092,0.2709848386211003,9.819250878091324
1520531125.5480523,-0.0702140130722208,0.020938836551399,0.01406139049907,0.3235980137197934,0.2817774770716745,9.7716392721408
1520531125.5530686,-0.0684610331853361,0.0177401233885115,0.0118693023305554,0.3055594980254842,0.2925711457818593,9.77993933161348
1520531125.5580845,-0.0646966943219109,0.0154170798829038,0.0094096037358978,0.3380288262752409,0.2841746339989252,9.809847223274415
1520531125.563099,-0.0647039039483662,0.0122213196865635,0.0058680531507763,0.360877612821366,0.2805754331893592,9.77476401659349
1520531125.5681145,-0.0621938206889796,0.0095976582031409,0.0066550158379805,0.360877612821366,0.2517960630274503,9.798034959819864
1520531125.5731316,-0.0601855352996566,0.0104835258953702,0.0025997628692202,0.2718876020627736,0.2266210449731601,9.805898553844967
1520531125.5781465,-0.0566693275699149,0.010491460152564,0.0001583156803107,0.2033412424243985,0.2206306814740776,9.789139429444228
1520531125.5831606,-0.0536564663002388,0.0096235870546601,-0.0017477755261825,0.1672642110357798,0.2038455253452353,9.797641959566043
1520531125.5881786,-0.0496373041402261,0.0116794226557334,-0.0071505994193811,0.1973284038596285,0.217033728503662,9.807795766011614
1520531125.5931935,-0.0483766269014523,0.0160565102913776,-0.0092839539233038,0.2081515132762141,0.213435464293742,9.796072488979334
1520531125.598209,-0.0423409661241282,0.019849057372389,-0.0100778928604945,0.2045438101373522,0.2362194133184804,9.813517546016158
1520531125.6032245,-0.0390695885346462,0.0251039999585165,-0.0132904954782639,0.1756821850264573,0.2494122058151722,9.803326309050668
1520531125.6082406,-0.0373065331796396,0.0294820129363119,-0.0156953293246304,0.1528333984803325,0.300977023561253,9.800011991672374
1520531125.6132543,-0.0327754937493103,0.037068524018491,-0.0188924808762797,0.1841001590171351,0.2673986565466131,9.743957491901767
1520531125.6182723,-0.0269912180449998,0.0414466554228177,-0.0207636905031849,0.1865052944430432,0.2614027671096196,9.736967064759844
1520531125.6232865,-0.0217079561511638,0.0469901280252326,-0.0226250743423091,0.2382157061000629,0.2733901439652707,9.778289236292906
1520531125.6283035,-0.0199423486046221,0.053408561125146,-0.0252848924874098,0.2285951643964312,0.268594331551336,9.738874659657869
1520531125.633319,-0.0154187462069543,0.0548730834099032,-0.0274465452469555,0.2670773312109575,0.2997689854412035,9.739631838985952
1520531125.6383345,-0.0106449897440122,0.0551707091788949,-0.0290764652792084,0.3115723365902539,0.3069603625629908,9.774056054489256
1520531125.6433485,-0.0091481935273423,0.0478903288851618,-0.0304875722310821,0.3452442325529645,0.3345379698224782,9.838781479542847
1520531125.6483643,-0.005642374915854,0.037980991179448,-0.0292169617779004,0.3320159877104711,0.2913699448392253,9.862195210460907
1520531125.6533806,-0.0041442183255567,0.0304033989098795,-0.028465924647874,0.3284082845716092,0.2949676470893577,9.878496832971509
1520531125.6583965,-0.0011369946310266,0.0231148681765828,-0.0266332811885609,0.2791030083404973,0.2625946957157586,9.874359736627849
1520531125.663411,0.001870409415616,0.0175819289177215,-0.0274927581764026,0.261064492646188,0.239812432570383,9.838531067339192
1520531125.6684306,0.0031198664224536,0.0132152954413756,-0.0288811675519092,0.2430259769518787,0.2434112587400905,9.807325248403922
1520531125.6734436,0.0036191238973752,0.0120557816918299,-0.0310553605069,0.1901129975819047,0.2254282734273396,9.755561333035564
1520531125.6784575,0.0081345875145866,0.0076933418617971,-0.0335320208685387,0.2021386747114444,0.194249685818959,9.734556094115849
1520531125.6834736,0.0076272853673959,0.0053671677498453,-0.0354426933757814,0.1660616433228259,0.2194344445095672,9.689559075469848
1520531125.6884897,0.0101402775904117,0.0068316308213368,-0.0378711582450577,0.1937207007207666,0.1738649542406924,9.693982869880408
1520531125.6935046,0.0141597886582564,0.0080082138230567,-0.0413868301228765,0.1744796173135034,0.1306973975572626,9.683752951408245
1520531125.6985197,0.0171683414008444,0.0051057480515773,-0.0452023041978455,0.1444154244896547,0.1426911432905062,9.67589887674687
1520531125.7035377,0.0179199091706498,0.0045283733810912,-0.0471019718095873,0.1071358253880823,0.1151138170109126,9.735557969964002
1520531125.7085516,0.0206804601454421,0.0030783612041277,-0.0492825883593296,0.1528333984803325,0.0707420622659817,9.716562140104536
1520531125.7135663,0.0206844668187919,0.0071628436037028,-0.051145286436304,0.1576436693321481,0.0323691940769115,9.724687746414356
1520531125.7185826,0.0199363725302608,0.0094848832826072,-0.0478795508331986,0.2009361069984905,0.041958945705489,9.731229873394328
1520531125.7235997,0.0206897828795443,0.0083159983847217,-0.0465371138647447,0.1792898881653193,0.0791339847106507,9.746512186298109
1520531125.7286155,0.0211924667816465,0.007730512516948,-0.0454603098983016,0.1552385339062403,0.0839324196035942,9.745579466115416
1520531125.733631,0.0199353963221659,0.0056830442375113,-0.0427680789200998,0.2165694872668919,0.0947199067561156,9.734512688596457
1520531125.7386456,0.0161647651898934,0.0030510939170042,-0.0398050809839027,0.2658747634980039,0.1774567559130553,9.757194975959134
1520531125.7436616,0.0136465392179193,-0.0016156852304378,-0.0384832536366367,0.2718876020627736,0.2350150279370501,9.772188193797868
1520531125.7486763,0.0126473577779817,-0.0022214294702923,-0.0300989101412324,0.2658747634980039,0.2841802535968009,9.75941519267435
1520531125.7536917,0.007621020491987,-0.0057345815299967,-0.0247053347814964,0.2165694872668919,0.3501368169430571,9.756344354466435
1520531125.7587097,0.0051157240334083,-0.0028341041406374,-0.0200791564653664,0.1901129975819047,0.4136933199031604,9.780944913766186
1520531125.763723,0.0026145165599737,0.0021016943533653,-0.0138141411766618,0.2201771904057534,0.4436694889893673,9.792244493416476
1520531125.7687397,-0.0026548082868025,0.0032440403951951,-0.00594961666559,0.20694894556326,0.4412722384021521,9.795862019578324
1520531125.7737556,-0.0091823365604805,0.0055623587345052,-0.0021320546354417,0.1552385339062403,0.4412762657806297,9.828905367722788
1520531125.7787707,-0.0131965707574043,0.0072952504193073,0.0030291234708802,0.185302726730089,0.4460704859751663,9.879742397940774
1520531125.7837863,-0.0169617054768118,0.0075720463542545,0.0079081735314818,0.1143512316658059,0.384919850319021,9.931626966557298
1520531125.7888026,-0.0237497690697553,0.0040669462785719,0.0100584652033023,0.110743528526944,0.3501450590199415,9.975857462825145
1520531125.7938175,-0.0285338205427634,-0.0038066772000348,0.0116305850175059,0.1865052944430432,0.3345503329378047,9.985594541268508
1520531125.7988317,-0.0343211306444599,-0.0099309304749154,0.0126768184448499,0.185302726730089,0.3249573032104663,9.97515630545096
1520531125.8038485,-0.0375901324623882,-0.0134375658972856,0.0159027595744768,0.2177720549798458,0.2913788425358619,9.964413714838468
1520531125.8088636,-0.0428660083097874,-0.0154931653449995,0.0210373711881308,0.2382157061000629,0.2829832673525737,9.927034307718955
1520531125.8138783,-0.0463835332911938,-0.0154967290157865,0.021855543001633,0.2177720549798458,0.299772825499752,9.884217596622602
1520531125.8188963,-0.0478987123121614,-0.0189851929037376,0.0185851155667311,0.2105566487021219,0.2853837023785851,9.875004707398402
1520531125.8239105,-0.0489032019485893,-0.0178171348924615,0.0175136912174498,0.2370131383871088,0.2925764843998412,9.834065141723856
1520531125.8289256,-0.0506675235690359,-0.0195566616411291,0.0139865231217755,0.2261900289705234,0.3057678719970642,9.81788760914088
1520531125.833943,-0.0514285395067003,-0.0218749214668768,0.0091003124828906,0.1997335392855366,0.2853845453182664,9.783300680522927
1520531125.8389575,-0.0489161196655916,-0.0209939558810388,0.0069379473388963,0.2261900289705234,0.3225558379248444,9.815546950482943
1520531125.8439736,-0.0474059979736007,-0.0204156951106776,0.0088334144411962,0.2153669195539378,0.365725736107389,9.816772343732014
1520531125.8489876,-0.0448906378432932,-0.0201298819075782,0.0112658833569036,0.2310002998223392,0.3861099057258682,9.829383882727637
1520531125.8540056,-0.041369251282949,-0.0210172257332294,0.016663597893201,0.2213797581187075,0.4148900251674938,9.82480088322018
1520531125.8590195,-0.0368455705056181,-0.0230653432594787,0.0204272778197674,0.21296178412803,0.414890680787246,9.794667075805467
1520531125.864035,-0.0353378755714056,-0.0268695052955957,0.0266181329768432,0.1985309715725824,0.4172900855536469,9.777373038490795
1520531125.8690517,-0.0305665027442793,-0.0312471437225108,0.029822469705859,0.1949232684337207,0.4268834899208436,9.814587405481088
1520531125.8740675,-0.0245359934041192,-0.0327060740123817,0.0314234282962068,0.1816950235912273,0.3921094479014809,9.78453432913032
1520531125.879083,-0.0184984429932232,-0.0283344000321236,0.0319866650091414,0.1275794765082993,0.3717282754018688,9.750216616810173
1520531125.8840976,-0.0119618467850876,-0.022194554338194,0.0252575675980576,0.1083383931010362,0.3093744719438331,9.702816801230997
1520531125.8891137,-0.0074357705755477,-0.0151769721203123,0.0169155978536657,0.1083383931010362,0.2973830677097044,9.677261327630667
1520531125.8941295,-0.0039145368423988,-0.007575557807876,0.0080388493811758,0.1239717733694376,0.2805938842023844,9.688746972188817
1520531125.8991446,0.0021225902131331,0.0026514870988164,-0.0016341962439446,0.113148663952852,0.2482179357099183,9.669127442634668
1520531125.9041605,0.0069015490994639,0.0108347058814113,-0.0099677403703694,0.1047306899621745,0.1978546935463299,9.675069210049232
1520531125.9091766,0.008913229590398,0.0169778783930653,-0.0185822580338781,0.1275794765082993,0.2086451778177184,9.681809153649205
1520531125.9141903,0.0116765170409691,0.0207873563287299,-0.0261337769660725,0.1359974504989771,0.2398221732067009,9.700291118701232
1520531125.9192066,0.0166963033263409,0.0211025628988906,-0.0342572652232263,0.1720744818875956,0.2086417123990284,9.727861824730194
1520531125.9242225,0.0169410511548065,0.0179047158648886,-0.0369876448439154,0.1624539401839639,0.191854495750965,9.761674010603455
1520531125.9292395,0.016931152106666,0.0106201026825664,-0.0370432219766551,0.1792898881653193,0.2194334142499566,9.762645388964962
1520531125.9342546,0.0161647691220245,0.0045145724330789,-0.0422288786204659,0.2033412424243985,0.1846564687716915,9.736878031681858
1520531125.9392705,0.0146461087555204,-0.0036455134954398,-0.0420177787736052,0.2213797581187075,0.1858542042956354,9.786673476527636
1520531125.944285,0.0111170969461402,-0.0135627069737953,-0.0388402787975179,0.2803055760534512,0.2122307042724534,9.78026348352816
1520531125.9493003,0.0113569520692173,-0.0237690797152506,-0.0359425486517112,0.3019517948866224,0.2110298779696778,9.76145965858423
1520531125.9543166,0.0085826286709537,-0.0331032087723952,-0.0327620026748187,0.2742927374886814,0.1990406279147348,9.77568629572516
1520531125.9593325,0.0050530444796663,-0.0436038997364043,-0.0293184029734493,0.2526465186555102,0.1726612244790144,9.728274810081343
1520531125.9643466,0.0030306416911711,-0.0529311775473137,-0.0285741702294819,0.2418234092389248,0.1402852759865482,9.710979568435636
1520531125.9693637,0.0002571141488897,-0.0602190590337978,-0.0278129757185333,0.2237848935446154,0.0899227831026765,9.740257855385993
1520531125.9743795,0.0005056412444989,-0.0622586522693064,-0.0278290040389718,0.2273925966834773,0.0239697788350749,9.72285489456216
1520531125.9793935,-0.0004992953400793,-0.0640160944280441,-0.0245939249069292,0.2358105706741549,-0.0203990724509535,9.671681890733772
1520531125.9844103,-0.0062762751740093,-0.0657841484148875,-0.0181034272819168,0.2694824666368656,-0.0323930991640908,9.666717266729457
1520531125.9894257,-0.0097945607536974,-0.0710537580779129,-0.0094794400228515,0.21296178412803,0.0047846559800441,9.7067440493082
1520531125.9944465,-0.0097959799778115,-0.0763176187769479,-0.002485262264992,0.2261900289705234,0.0695372085847285,9.632174936298004
1520531125.9994566,-0.0125610668858981,-0.0798284278746416,0.0023630207934996,0.185302726730089,0.0971206227620208,9.64068102109329
1520531126.0044725,-0.0170837048718643,-0.081881546662527,0.0066845945496359,0.1961258361466746,0.1798604690378276,9.67768359771224
1520531126.0094886,-0.017083054110294,-0.0848106889878798,0.0123438275104659,0.2370131383871088,0.1894504079863343,9.698194862255692
1520531126.0145023,-0.021105336911618,-0.08802696368065,0.0158439377911176,0.2502413832296024,0.2050382032310911,9.766617398523689
1520531126.0195196,-0.0233679555274155,-0.0906590516989749,0.019074681283588,0.2057463778503061,0.253007285586296,9.797219454851168
1520531126.0245345,-0.0256393244954081,-0.09794527941224,0.0192938505561914,0.1792898881653193,0.2206325546733695,9.79285996243541
1520531126.0295506,-0.028159087260991,-0.1026069595422075,0.0187218566321488,0.2237848935446154,0.169066051047926,9.886610817227124
1520531126.0345666,-0.0331866006363694,-0.1026038296355665,0.0168373698262666,0.1672642110357798,0.1846592785706293,9.839497851345929
1520531126.0395806,-0.0389783878208734,-0.1081278315102339,0.0113949479226001,0.1756821850264573,0.1930526059147673,9.890542064561838
1520531126.044597,-0.0450168516572464,-0.1092767933446429,0.0043630636464414,0.1901129975819047,0.175064375643999,9.845095529758922
1520531126.0496137,-0.0518029236441686,-0.1069345352356369,-0.0007469221648795,0.1985309715725824,0.1846568434115499,9.878706414322297
1520531126.0546296,-0.0580864881489702,-0.1054698759527652,-0.0045117811991658,0.2153669195539378,0.179858970478394,9.821602167132587
1520531126.0596445,-0.0643677591940122,-0.1002077482112045,-0.0117648367711435,0.2033412424243985,0.1990461538526459,9.882131993888253
1520531126.0646586,-0.069132612346085,-0.087948887357093,-0.0200495222189239,0.2442285446648326,0.2673939735483834,9.840992331234856
1520531126.0696745,-0.0754043371829496,-0.0759863723499315,-0.0267103550369786,0.2983440917477604,0.2697880396968024,9.843949696879834
1520531126.0746906,-0.0824348002262433,-0.0683985627741273,-0.032050404485357,0.3476493679788724,0.3189489569981816,9.803908952213668
1520531126.079707,-0.088704905957705,-0.0584903080793721,-0.0333158809825541,0.3356236908493329,0.352525825453388,9.846992587585047
1520531126.0847216,-0.0969939331321254,-0.0532377091549585,-0.0373186520175464,0.263469628072096,0.3225529344659419,9.92326348147611
1520531126.0897365,-0.1062942675396345,-0.0511849064043909,-0.0435083772650688,0.2562542217943722,0.3249517772725552,9.950060684083208
1520531126.0947526,-0.1160936398801211,-0.0479733183353454,-0.0472533636616991,0.3211928782938855,0.3009639111662097,9.962235581317591
1520531126.0997686,-0.1273895065835393,-0.0395312396985664,-0.0458151621610054,0.4222085661820174,0.3465233798188728,10.027450127076786
1520531126.1047845,-0.1394461344249773,-0.0366279477401807,-0.0436061614236763,0.4582855975706359,0.3057497956238973,10.013193005467858
1520531126.1098006,-0.1540195337565747,-0.03634737265178,-0.0416830471173215,0.4558804621447281,0.3213388084481938,10.075956987698298
1520531126.1148157,-0.1663279896870457,-0.0343205180240181,-0.0386686112249461,0.5003754675240243,0.3177379217592652,10.059257393269206
1520531126.1198325,-0.1803941731153777,-0.0311280860448085,-0.0359125618243343,0.4318291078856491,0.3237389624943115,10.049459439201284
1520531126.1248465,-0.195725381499403,-0.0325910144693156,-0.0358952071313317,0.3909418056452147,0.3141490235458047,10.066136781192842
1520531126.1298623,-0.2095439159999023,-0.0314352620013434,-0.0342373696347633,0.3428390971270566,0.2973648040166083,10.01316273230531
1520531126.1348777,-0.2216023001768932,-0.0285261425944153,-0.034192736064644,0.3284082845716092,0.282976242855229,9.938940011983398
1520531126.1398935,-0.2309025562047392,-0.0299859796548541,-0.0344571286260543,0.3656878836731817,0.2769776372792623,9.943231577747309
1520531126.144909,-0.2407041867472847,-0.0337916584660756,-0.029327454505374,0.3885366702193067,0.2733784364696963,9.875608340348249
1520531126.1499257,-0.2489899757108992,-0.0326475801664748,-0.0225395128986513,0.4017649150618003,0.2481954573184155,9.78834334428537
1520531126.1549406,-0.2592851477735573,-0.0323857274037641,-0.0130490478026744,0.4065751859136161,0.230207976327364,9.74647688179652
1520531126.1599555,-0.2668206470291995,-0.0335709730937456,-0.0068213828400448,0.3993597796358923,0.1570609724589665,9.774509896730564
1520531126.1649716,-0.2746098640074466,-0.0362117830135977,-0.0011454583724943,0.3668904513861356,0.0947081992605412,9.720265973046764
1520531126.1699877,-0.2793827932888368,-0.0391464381495816,0.0058753718099969,0.3440416648400106,0.0515409235570052,9.715881889514971
1520531126.1750026,-0.2836574765611009,-0.0438226476586291,0.0104470169709769,0.3404339617011487,0.0371515194559445,9.6706074225407
1520531126.180019,-0.2871760130083026,-0.044408251952934,0.0109901967179587,0.359675045108412,0.027556897509208,9.70761810288689
1520531126.1850336,-0.2891768966226647,-0.0359523324261634,0.0086234869149962,0.3260031491457013,0.0071741327901979,9.740505753952204
1520531126.1900496,-0.2866454196229017,-0.0184507938875459,0.0022591032992287,0.2959389563218526,0.0311592827575702,9.768666448479127
1520531126.1950643,-0.2866245120205072,0.0005052258699836,-0.0035484058654751,0.2766978729145894,0.009576253695572,9.81187410379455
1520531126.2000806,-0.2853451696528737,0.0226749804471893,-0.0123097995630437,0.2791030083404973,0.026364032303423,9.83972577783346
1520531126.2050977,-0.2850756016568511,0.0401763613169995,-0.0189405285652706,0.2887235500441287,0.0299607042939448,9.903546546846352
1520531126.2101126,-0.2833028118772925,0.0559373100669805,-0.0282928553779952,0.3139774720161619,0.0179673332005596,9.896339570328584
1520531126.2151265,-0.2797726944939295,0.0687778184221464,-0.0349652211477027,0.3211928782938855,0.0263607542046622,9.883477571118869
1520531126.2201426,-0.2780152217957131,0.0708327679233446,-0.0403638445314595,0.3921443733581686,0.0167621048794481,9.852580584694016
1520531126.2251585,-0.2775134121292564,0.0717136742959169,-0.0427930217851844,0.3945495087840766,0.0263550409468218,9.865331403363578
1520531126.2301743,-0.2752513267055344,0.0720059449230849,-0.0427949992093167,0.384928967080445,0.0239575093797129,9.78291516174393
1520531126.2351916,-0.2712355243894323,0.0655846772831555,-0.0382520944281478,0.3692955868120435,0.0335518503465556,9.69705932015126
1520531126.2402046,-0.2684820733358627,0.0527429881611927,-0.0302386672607173,0.3777135608027212,0.0047718245648946,9.648195402821065
1520531126.245221,-0.2649757882470477,0.036685438139616,-0.0181929057629876,0.333218555423425,-0.0156100972144341,9.610297618186848
1520531126.2502377,-0.2559469467268335,0.0197719260415694,-0.0121160911429829,0.2935338208959448,-0.0767631680296589,9.51893414896734
1520531126.2552526,-0.2456639005888054,0.0005249162786168,-0.0049772112382066,0.2574567895073261,-0.1283233964374744,9.469363392216444
1520531126.2602684,-0.2356266529348697,-0.0143499671683483,0.0016543898776823,0.2622670603591419,-0.1774885284372606,9.325258664576804
1520531126.2652836,-0.2200661039797773,-0.0306686807638439,0.0042064192165358,0.2514439509425563,-0.2482369704789386,9.26151508361832
1520531126.2702997,-0.2062638117824904,-0.046698155882974,0.0073050304954007,0.25865935722028,-0.32498251953715,9.244087531678456
1520531126.2753146,-0.1919576909192871,-0.0621461218985706,0.0109482462901445,0.2730901697757275,-0.3129922392225964,9.22185464247868
1520531126.280331,-0.1743874099573192,-0.0784618625565293,0.0126849041551237,0.2297977321093853,-0.4077209609134878,9.245611281395131
1520531126.2853456,-0.1580662723520574,-0.0880704239159175,0.0123106594313702,0.2285951643964312,-0.4293053948749549,9.185212548938658
1520531126.2903616,-0.140737916498851,-0.0965145102061031,0.0124845319475723,0.2430259769518787,-0.467679012343742,9.209514530156136
1520531126.2953763,-0.1244094712268156,-0.0991225585997838,0.0094581823122366,0.2237848935446154,-0.4856646201355015,9.248070101636928
1520531126.3003926,-0.1053136573833272,-0.098812764985306,0.0053667459904073,0.2334054352482473,-0.441297173748942,9.232825324228433
1520531126.3054075,-0.0869643069265738,-0.093844756456106,0.0026650086828516,0.1913155652948588,-0.4376964743799426,9.216961477826535
1520531126.3104236,-0.0678614912021811,-0.085948038665996,-0.0054268158594468,0.1384025859248849,-0.4652725830799965,9.205881955569842
1520531126.3154397,-0.0482545841479652,-0.0777633815928487,-0.0121646212834722,0.1299846119342071,-0.448483961532464,9.283811165148013
1520531126.3204556,-0.030410591286475,-0.0704448261175581,-0.0221523796513419,0.1444154244896547,-0.4304979791008462,9.32549034673404
1520531126.3254716,-0.015583066473954,-0.0645880169005713,-0.0307929232869975,0.1889104298689508,-0.413713478591756,9.42498526895962
1520531126.3304863,0.0002502221046969,-0.0596107948918388,-0.0372776359044573,0.2346080029612012,-0.4029247738596948,9.4930964460611
1520531126.3355026,0.0125633864563127,-0.0578481938026576,-0.0408042634796105,0.285115846905267,-0.3381751247139126,9.44373164329451
1520531126.3405185,0.0268853615250648,-0.0557868646622397,-0.0467673148187358,0.3127749043032078,-0.2638305726415004,9.482902822406675
1520531126.345533,0.0394482839800292,-0.0554825446161168,-0.0497644327519058,0.3187877428679776,-0.2302551090857629,9.44794723699898
1520531126.3505497,0.0540219499076644,-0.0545932110089391,-0.0533019300924297,0.3801186962286291,-0.2086753581225257,9.422924207976148
1520531126.3555646,0.070101605420184,-0.0548680963466151,-0.057121666009721,0.4546778944317741,-0.2746338883280385,9.40831708068582
1520531126.3605795,0.0854359814996143,-0.0510740917037649,-0.057121236020247,0.40777775362657,-0.3130027291386311,9.40183813301712
1520531126.3655946,0.1020283924502268,-0.0458212152846062,-0.057653116012384,0.4582855975706359,-0.3609722797936588,9.387447566766571
1520531126.3706117,0.1206336952388578,-0.041161246741717,-0.0541349875227924,0.5761372334401231,-0.4293324626047229,9.364286388443867
1520531126.3756256,0.1377351999299145,-0.0368078220807269,-0.0452053638608577,0.4943626289592545,-0.4365209362676076,9.381359363675418
1520531126.380643,0.1581039030492528,-0.0301125716754703,-0.0397811195656895,0.357269909682504,-0.4425059611487081,9.379213154941604
1520531126.3856566,0.1812316203497747,-0.0248622344297025,-0.0384313130915723,0.3055594980254842,-0.3861423338698256,9.3250407475749
1520531126.3906727,0.2028430569874773,-0.0245601974326215,-0.0392808658953,0.282710711479359,-0.3117938480789003,9.329839220430395
1520531126.3956876,0.2259643526532641,-0.023386329844683,-0.0390443661991219,0.282710711479359,-0.2866118991872299,9.248464587510815
1520531126.4007046,0.2503341369820557,-0.0274539777460369,-0.039932399238478,0.2249874612575695,-0.1678925015910553,9.218694922823865
1520531126.4057205,0.2709333372326685,-0.0329829388412517,-0.0397423632717072,0.4366393787374648,-0.2086797601408616,9.20040457506826
1520531126.4107366,0.2907882263940248,-0.0335681279429939,-0.0359960380381435,0.4871472226815307,-0.2758355575704952,9.26157207526995
1520531126.4157495,0.310904662340442,-0.0277478580062254,-0.0303074503797315,0.5099960092276559,-0.2470579669479138,9.3914817379284
1520531126.4207675,0.3280104403008863,-0.0181400422500818,-0.0248549078289403,0.4715138424131294,-0.2278687230544408,9.469701235238729
1520531126.425783,0.3423543539670047,-0.0056143652144931,-0.0212688217403773,0.3139774720161619,-0.1643020111581966,9.605981321339756
1520531126.4307983,0.3539284488425843,0.0072212809762606,-0.0249801177998535,0.3187877428679776,-0.1139384880147145,9.667479018439176
1520531126.4358137,0.3629892457092787,0.0191788753054477,-0.0276112322989402,0.3741058576638594,-0.130730762300866,9.711118426853387
1520531126.4408295,0.3705437393409573,0.0299601427572639,-0.0264607962570202,0.4450573527281425,-0.0827706713022623,9.852162617368984
1520531126.445845,0.3758491201842721,0.047723554729285,-0.0214651631156109,0.3741058576638594,-0.0312021071575978,9.85164079015618
1520531126.4508617,0.3791358461806658,0.0620012196265428,-0.0208212075461658,0.2322028675352931,0.0695367402849055,9.955192430288792
1520531126.4558756,0.3773857321354478,0.069580898733773,-0.0223834156406247,0.3031543625995763,0.0371544229148469,9.97893842715798
1520531126.460893,0.3786501023974399,0.0757019229467677,-0.0228801562572824,0.3668904513861356,0.0491408631708521,9.975982077866457
1520531126.4659066,0.3741293579771766,0.0756914095742038,-0.0196252044875838,0.382523831654537,0.062330190248854,9.966519897767414
1520531126.4709225,0.3665918828440372,0.0745127197638324,-0.0158324525880653,0.3223954460068395,0.1019065072197085,9.927553667950036
1520531126.4759386,0.3605606168377264,0.0721690825775397,-0.0120513933694131,0.3717007222379515,0.112694930971876,9.9444953958966
1520531126.4809546,0.3525253779013118,0.072437648888668,-0.0047294959500879,0.3031543625995763,0.1378822184815281,9.887030830277698
1520531126.4859695,0.3444832390564423,0.0703875223096058,-0.0020246634435605,0.2682798989239117,0.2122316408720994,9.923324240461373
1520531126.4909856,0.3356855767546422,0.0674644036441756,0.0001338081850496,0.2538490863684641,0.2062370626746102,9.98622632136257
1520531126.4960003,0.3231264374989525,0.0697818159126209,0.0034214797819072,0.2346080029612012,0.1954462974233279,10.001531997723486
1520531126.5010157,0.3110711778954039,0.0753148529273207,0.0029450293280103,0.2346080029612012,0.2554033185939714,10.021229977982728
1520531126.5060325,0.2977631211017624,0.0840548127577373,0.0016837287411718,0.2177720549798458,0.2482097872929985,10.01326585712866
1520531126.5110476,0.2849566975545961,0.0933835660023654,-0.0017384262888,0.1877078621559971,0.2494112692155262,10.086772383315871
1520531126.5160625,0.2726535263593082,0.1012468523487988,-0.0019260794410476,0.2213797581187075,0.2170318553043701,10.082989782033016
1520531126.5210795,0.2560773929696083,0.1076479001592202,-0.0007641842447246,0.2502413832296024,0.2206270287354584,10.1350018306009
1520531126.5260956,0.2394943909970233,0.1070469781417985,0.003590907654983,0.2754953052016353,0.2110319384888989,10.15684611426011
1520531126.5311103,0.2234131908266329,0.1044000054647996,0.0103644175740921,0.3175851751550236,0.1870458519218807,10.139027664756895
1520531126.5361257,0.2065755380453107,0.098248838782983,0.0198181095983124,0.2863184146182209,0.2062345338555661,10.17417760542256
1520531126.5411425,0.1897397357077289,0.0944331189059163,0.0276663109296019,0.2887235500441287,0.233814576274133,10.157857285147896
1520531126.5461566,0.1739067999690409,0.0900401228139053,0.0336143779258784,0.3091672011643459,0.2769820392975982,10.18318336996848
1520531126.5511734,0.1565682706073942,0.0871027301940407,0.0398469065842321,0.3308134199975172,0.3237468299313374,10.178278498905192
1520531126.5561876,0.1404848750175626,0.08446304182772,0.0439149575443288,0.3380288262752409,0.3513264977100459,10.158424926542168
1520531126.561205,0.1238985328617221,0.0827024091496692,0.0460967899355883,0.3380288262752409,0.3837032891421934,10.133988331343827
1520531126.5662186,0.1078128124865616,0.080948529262312,0.0458427758171941,0.3031543625995763,0.3573249159660835,10.09716489690867
1520531126.5712345,0.0919736354652511,0.0742346549869071,0.0479854155883766,0.3175851751550236,0.3777091792445272,10.088869549784777
1520531126.5762506,0.0756258390450852,0.0651989771859572,0.0465941074769091,0.3380288262752409,0.3777075870251291,10.087508419871307
1520531126.5812666,0.0620452347763908,0.0587890284348052,0.0444060354895396,0.3103697688772999,0.3357398263848643,10.056440676278935
1520531126.5862825,0.0482098542652025,0.0491708377036186,0.043276159870641,0.3079646334513921,0.3321425924345549,10.101791208624084
1520531126.5912976,0.0351323690503675,0.0407104677064826,0.0451297812780802,0.2875209823311748,0.3513304314285589,10.132187227965032
1520531126.5963123,0.0250733356262608,0.0366322451201895,0.0432235057432902,0.2490388155166485,0.3489351477006002,10.10932124936479
1520531126.6013286,0.0137613285920797,0.0354688323912525,0.0408007028861502,0.2322028675352931,0.3657244248678847,10.090874446137756
1520531126.6063445,0.0044636286879,0.0375128939690064,0.0378575283894426,0.25865935722028,0.3669215047720765,10.087129333694472
1520531126.6113596,-0.002327724102074,0.0354821988754157,0.0335258339861815,0.2370131383871088,0.3621266289577877,10.055966815303227
1520531126.6163757,-0.0088724825519734,0.0311256250364981,0.0272820669058637,0.2310002998223392,0.3621270972576107,10.006053150553935
1520531126.6213906,-0.0146592555294633,0.028804667668849,0.0226757366283064,0.2478362478036946,0.3321472754327846,10.015215664878964
1520531126.6264076,-0.0171739570339384,0.0285166691725462,0.0210549054003026,0.285115846905267,0.3201529677397535,9.95559515985707
1520531126.6314216,-0.0174262242068596,0.027641688704058,0.0213192487635464,0.2670773312109575,0.3561285853416085,9.952249223663316
1520531126.6364377,-0.0174287293443012,0.0267719057085862,0.0196893041322102,0.2887235500441287,0.3513303377685943,9.943908202325108
1520531126.6414535,-0.0156658151515756,0.0276380073064429,0.0229392570760545,0.2935338208959448,0.322550592966827,9.91251155947748
1520531126.6464686,-0.0118953291137151,0.0252945677309367,0.0280548435666314,0.2899261177570829,0.3105594697125921,9.96253055807068
1520531126.6514857,-0.0098877651328424,0.0191580695254243,0.0347680723864903,0.25865935722028,0.2913756580970656,9.939610719881374
1520531126.6564996,-0.0048628549352239,0.0144804038539444,0.0412162700577401,0.2394182738130168,0.2901780162330863,9.923529154764376
1520531126.6615157,0.0016616663345064,0.004269208190353,0.0468077910807761,0.2394182738130168,0.3069659821608665,9.944431375190824
1520531126.6665306,0.0064307496340042,-0.0024424201791763,0.0510765267109202,0.2646721957850499,0.3501330705444733,9.905792722303651
1520531126.6715477,0.010949984654097,-0.008573563242865,0.0561618129226585,0.261064492646188,0.341739368560477,9.862836696541573
1520531126.6765623,0.0197413938768814,-0.0123617583090527,0.0574693069786438,0.2021386747114444,0.3357482557816778,9.8994425535835
1520531126.6815786,0.0267747619516733,-0.0173249218460175,0.0620177265071047,0.1997335392855366,0.3345493026781941,9.88900783744763
1520531126.6865945,0.0340604873754428,-0.0205353091772763,0.0649557424487445,0.2538490863684641,0.3345450879797874,9.828049624289054
1520531126.6916096,0.0425984023496975,-0.0243163183883277,0.0635582442689888,0.2418234092389248,0.3537322713540393,9.826985821471103
1520531126.6966245,0.0498778473010128,-0.0280912639974772,0.0597281666424786,0.2466336800907407,0.3765155647590255,9.823430351937
1520531126.7016406,0.0581655690201618,-0.0289490567872598,0.0548362693923741,0.2514439509425563,0.413688543244966,9.845428017324716
1520531126.7066565,0.0669514896943433,-0.0327190410767524,0.0493801160508286,0.2622670603591419,0.4028954364945689,9.845333195870126
1520531126.7116723,0.0754955715036885,-0.0292030537773288,0.0434389147734916,0.2983440917477604,0.3944986437317409,9.829882358147238
1520531126.7166865,0.0835386434346902,-0.0230582467637422,0.0350837416473725,0.2670773312109575,0.3729165512693887,9.83601845749191
1520531126.7217026,0.0880653312159688,-0.0172134869657102,0.0294383385207546,0.2406208415259707,0.3633254884013068,9.83047460367619
1520531126.726719,0.0935970378936198,-0.0116604463038722,0.024059391311643,0.2526465186555102,0.3333460412163391,9.833873218455826
1520531126.7317345,0.0996331456190943,-0.004942399052847,0.0189589488931284,0.2466336800907407,0.3093637010479046,9.87579231287484
1520531126.7367506,0.1029024140330603,-0.0002658549348984,0.0141186247293325,0.1985309715725824,0.3177614304103786,9.902981640704184
1520531126.7417655,0.1066730020433702,0.0026589367750371,0.0106167580866425,0.285115846905267,0.2613950869925228,9.8824373883645
1520531126.7467806,0.1086811933245059,0.0012035302139739,0.0103313629780228,0.2875209823311748,0.2649923209428322,9.918436932814693
1520531126.7517977,0.1111898260342089,-0.0020007150308309,0.0103022418069041,0.2887235500441287,0.288975035751125,9.877726802575602
1520531126.7568126,0.1111882421865064,-0.0031662531400025,0.0102933494656658,0.2466336800907407,0.2973722968137759,9.88393901394687
1520531126.761829,0.1149538591117648,-0.0037373473265137,0.0064942599033595,0.2285951643964312,0.3477375994965854,9.861984742414617
1520531126.7668426,0.1162024810727885,-0.0083939084680169,0.0045625356507409,0.263469628072096,0.3873065173302369,9.867417427354107
1520531126.7718596,0.1156942537037277,-0.0118878059823437,0.0034546084899636,0.3115723365902539,0.4016924560126076,9.887853784202006
1520531126.7768755,0.1172013370662015,-0.0145191455986111,0.0069488970292654,0.333218555423425,0.3849028042054647,9.928334502333495
1520531126.7818906,0.1179462989170283,-0.0223920599174366,0.0090518407233024,0.3789161285156752,0.3753061217395071,9.961601239575652
1520531126.7869065,0.1194502577060597,-0.0276473171414756,0.0130672132866204,0.3717007222379515,0.3717092624290561,10.02675503936823
1520531126.7919216,0.1204494665394358,-0.0331883283553484,0.0149169290439615,0.382523831654537,0.378903262029852,10.04175054922974
1520531126.7969365,0.1222052063634066,-0.0387377853754099,0.0200117953823036,0.3680930190990896,0.3177482243553706,10.032653494574838
1520531126.8019536,0.1209462893923169,-0.0416572219435218,0.0218857194168729,0.3404339617011487,0.2961658509131247,10.022484463391164
1520531126.8069696,0.1174247224798601,-0.042525469592306,0.0191801253277303,0.3296108522845632,0.3117555193571734,10.01676388771766
1520531126.8119843,0.1166726333143723,-0.0398974767647526,0.0170371660981207,0.2923312531829907,0.3693171631398936,10.046124215038368
1520531126.8169985,0.1141571477503081,-0.0378412872834918,0.0105642934263715,0.282710711479359,0.4064912655454094,10.05547875760679
1520531126.8220155,0.1093854691373125,-0.0328772376466519,0.0060116733884686,0.2863184146182209,0.4280755121869473,10.110043360179317
1520531126.8270297,0.1046148451120748,-0.0276239887757226,0.002272914123579,0.3272057168586553,0.4160809235140223,10.17473714308959
1520531126.8320477,0.0978315879805945,-0.0235348803650948,-0.0022826413840819,0.3680930190990896,0.4400605475434835,10.211504390921116
1520531126.8370616,0.0895435212857447,-0.0203343564598842,-0.0017016937859204,0.4210059984690635,0.461640954126473,10.245832638958438
1520531126.8420775,0.0777343188980643,-0.0209304940977427,0.0015623467880272,0.4125880244783858,0.4784295756740053,10.285411098047378
1520531126.8470917,0.0646630318438891,-0.0267771445220563,0.0066825267140675,0.4173982953302017,0.5227973967004232,10.288807444132091
1520531126.8521097,0.0510925343688861,-0.0302936440701779,0.0120919706650284,0.4342342433115569,0.5467788939291763,10.351375960084964
1520531126.8571236,0.0382732478915944,-0.0364352227215818,0.018562190261994,0.4751215455519912,0.5407800073733158,10.326578811824117
1520531126.862141,0.0239452471500328,-0.042281636992536,0.0234141579084897,0.4727164101260834,0.5263905096122905,10.320805534236868
1520531126.8671556,0.008866827334611,-0.0449202031056222,0.0272097960796,0.4618933007094978,0.5227939312817331,10.323238675670892
1520531126.8721716,-0.0082226417393509,-0.0475573715698385,0.030197530349177,0.4306265401726951,0.5203980855939869,10.314248194182724
1520531126.8771875,-0.0210366395493285,-0.0463990399864961,0.0310418632649564,0.3753084253768133,0.4700384961690177,10.3136735950726
1520531126.8822026,-0.0383751571145821,-0.0449459970581365,0.0300029990136206,0.3680930190990896,0.4244717220391162,10.331220419615931
1520531126.8872175,-0.0539539634402155,-0.0417381303286853,0.0268098390440332,0.4258162693208793,0.3920904349286681,10.405067362137231
1520531126.8922336,-0.0702893556747994,-0.0426194119518412,0.0271040526966415,0.4943626289592545,0.3740979899594931,10.449741328224226
1520531126.8972485,-0.0873801851223887,-0.0449593684402221,0.0279296428843183,0.5148062800794716,0.4160663125595455,10.50412218123954
1520531126.9022646,-0.10422327939822,-0.0499216872186973,0.0287347585809375,0.4751215455519912,0.4004805778340098,10.485929346244347
1520531126.9072807,-0.1208095784320979,-0.0519751612861767,0.0314554596786899,0.429423972459741,0.3645099242102783,10.471301347161186
1520531126.9122956,-0.1399126450240042,-0.0551878737075663,0.0314664767089048,0.3656878836731817,0.3549217648010989,10.425445311697011
1520531126.9173105,-0.1575102904808022,-0.0586848240433885,0.0290375572510711,0.381321263941583,0.346526564257669,10.357896981993507
1520531126.9223275,-0.1708326881476912,-0.0598490244166589,0.0266184881801017,0.3897392379322607,0.3513224703315683,10.29970317153057
1520531126.9273436,-0.1849029997509987,-0.0569355936365896,0.0247730342650829,0.3668904513861356,0.2817741053129491,10.255831919018824
1520531126.9323597,-0.1974605472947239,-0.0505256862268233,0.0232220029300525,0.3644853159602277,0.2637871862816852,10.31398006693138
1520531126.9373746,-0.2115292750503289,-0.0464467173375824,0.0213854413562721,0.381321263941583,0.2326082240334463,10.30338730337393
1520531126.9423883,-0.2218296220114584,-0.0438261079759519,0.0206129470904788,0.429423972459741,0.2002276862027149,10.265762066741608
1520531126.9474046,-0.2278603508935627,-0.0423664492550132,0.0187414426042298,0.4222085661820174,0.1834402822347223,10.249578652470596
1520531126.9524205,-0.2361540472992964,-0.042659625953046,0.0182135295950713,0.4258162693208793,0.215816792686976,10.235566237690945
1520531126.9574375,-0.2426858841000624,-0.0423759002873115,0.0201217087567439,0.4438547850151885,0.2338024941387002,10.157509476823124
1520531126.962453,-0.2449469188681575,-0.0438424501964648,0.0233613445904526,0.4703112747001755,0.2577832420877365,10.116553540399083
1520531126.9674716,-0.2477099789125224,-0.0447256995310478,0.026335814145422,0.5063883060887939,0.236195904667367,10.146439179622485
1520531126.9724827,-0.2474556927401415,-0.0441501163315984,0.0290452525517821,0.4871472226815307,0.2254051394160846,10.076908347325409
1520531126.9774983,-0.2446901746124287,-0.0435677211281897,0.0295856565582192,0.4546778944317741,0.2074205618839357,10.007513286684514
1520531126.9825137,-0.2409126827615329,-0.036860758011989,0.0282770571917638,0.429423972459741,0.1894354223919991,9.974074458285855
1520531126.9875295,-0.2328663686875942,-0.0333609931071405,0.0282887990707966,0.4691087069872215,0.16544952314491,9.971387290300344
1520531126.9925456,-0.2240772411281761,-0.0365562210837931,0.0258130967547838,0.4342342433115569,0.1798419243648377,9.975199136728367
1520531126.9975605,-0.2155388439480706,-0.0406315285464086,0.0254955590733234,0.4727164101260834,0.1642501017416034,9.970191200516098
1520531127.0025766,-0.2052382382551654,-0.0450091862446101,0.0295012655780739,0.4907549258203926,0.1618504159953087,9.906100045866149
1520531127.0075936,-0.1921729455482303,-0.0476308978884855,0.0310802635755864,0.4715138424131294,0.1474622294737878,9.801708402960246
1520531127.0126083,-0.1775991071327446,-0.0479129298390217,0.029698241061034,0.5087934415147018,0.0887014452676546,9.788619260337857
1520531127.0176246,-0.1607591021726551,-0.048794327089896,0.0348006733680502,0.5340473634867349,0.1054874443361784,9.73489846150933
1520531127.0226395,-0.1466824159887061,-0.0488019253387823,0.0396443629910784,0.5063883060887939,0.1474595133348145,9.682830272993534
1520531127.0276556,-0.1298468920435552,-0.0505465497055182,0.0406819376036473,0.4582855975706359,0.1522598214270498,9.636808039724825
1520531127.0326705,-0.1137642531198743,-0.0517094288153611,0.0419959044525505,0.5027806029499322,0.1810357261702687,9.559645387516598
1520531127.0376866,-0.095415965115141,-0.0499575765524,0.0433279016451078,0.5256293894960572,0.1990210529821345,9.502460397599014
1520531127.042703,-0.0755625225713372,-0.0496598708994499,0.0438343453837855,0.4943626289592545,0.207417471105104,9.467892225064777
1520531127.0477166,-0.0549549600661928,-0.0478991197948677,0.0421861372119873,0.4751215455519912,0.2613802887181168,9.487783332923089
1520531127.0527337,-0.033334063464238,-0.0403110127533289,0.0408510697491969,0.457083029857682,0.26737739573465,9.444953735767124
1520531127.0577476,-0.011716459991445,-0.032711979245773,0.0354578138478879,0.4450573527281425,0.2290058387850841,9.527620425936934
1520531127.0627637,0.007886091481589,-0.0277325519728475,0.0286955544854571,0.4426522173022346,0.2002266559431044,9.590427673719612
1520531127.0677795,0.0279926911624836,-0.0221723440274562,0.0227484455348065,0.4498676235799582,0.2314037449920515,9.690271420623407
1520531127.0727956,0.0435713407287908,-0.0183549311348946,0.0140909401321698,0.4522727590058661,0.2637803491042698,9.661162839495336
1520531127.0778117,0.0634269512985973,-0.0119177543388951,0.0070687835771143,0.4907549258203926,0.2673747732556414,9.644514754312876
1520531127.0828266,0.0787576422190713,-0.006940729241246,0.0005850044061972,0.531642228060827,0.2961509589787541,9.64641300616083
1520531127.0878415,0.0938350505686977,-0.0048842037516778,-0.0034856258314334,0.5196165509312874,0.3189355636232445,9.618616384378091
1520531127.0928576,0.1053930874253085,-0.0037032102215717,-0.0075563911991943,0.5148062800794716,0.3525118701186633,9.59887401588308
1520531127.0978725,0.117197847987882,-0.005726619605078,-0.0119226231245332,0.5111985769406099,0.3465164489814927,9.55940208330516
1520531127.1028886,0.1237200523365454,-0.0121250497575563,-0.0155007624531145,0.481134384116761,0.3597093351381492,9.50273679322733
1520531127.1079056,0.1325080782541118,-0.0167801140949447,-0.0169053966120703,0.5063883060887939,0.347715964044764,9.497854104618
1520531127.1129186,0.1392855802409515,-0.0220209204244557,-0.017499105467771,0.4907549258203926,0.3285309348496978,9.507322131413288
1520531127.1179345,0.1430488605844877,-0.0260966416802275,-0.0183488671988787,0.5184139832183335,0.3249313594002735,9.54889360548512
1520531127.1229515,0.1463160511485073,-0.0266817729681104,-0.0170066512925189,0.5244268217831033,0.2961515209385416,9.543052424573888
1520531127.1279676,0.1490797188324798,-0.0284348245694517,-0.0148607565931511,0.5761372334401231,0.2937492127132383,9.55301074141403
1520531127.1329825,0.1478284545038646,-0.0266964792872843,-0.0113279878182209,0.5641115563105836,0.3093389748172516,9.58913905314884
1520531127.1379986,0.1458228506719646,-0.026420451025681,-0.0059111130287161,0.5087934415147018,0.2793647725903012,9.628057469714918
1520531127.143015,0.1430620762230972,-0.0264331889337244,-0.0015772447383119,0.5111985769406099,0.2757671640001333,9.612929696214968
1520531127.1480286,0.1408030643865929,-0.0267356575958417,0.0022123752284376,0.5099960092276559,0.266174134272795,9.645490786703526
1520531127.1530445,0.1387957904630652,-0.0270394846645529,0.0065426202637183,0.5593012854587678,0.2721659963313109,9.602005706387695
1520531127.1580615,0.1352906186810161,-0.0215227678002667,0.0133550404079297,0.5232242540701493,0.3153378613731121,9.625557640951875
1520531127.1630757,0.1290195367414597,-0.0154163521506074,0.0172010358238313,0.4618933007094978,0.3153426380313065,9.594776712065698
1520531127.1680915,0.1202286567786198,-0.0107518182093376,0.0150885733360711,0.3993597796358923,0.2877672786109694,9.667465194964192
1520531127.1731076,0.111684680873855,-0.0075360957072447,0.0099885238435781,0.457083029857682,0.2493902893834569,9.69483222601298
1520531127.1781223,0.10113105920614,-0.0049090289215456,0.0067815832379451,0.5256293894960572,0.2289995635674562,9.734859954961598
1520531127.1831386,0.0905743090328516,-0.0063693582596929,0.0065195242928914,0.553288446893998,0.261374200820418,9.80196351584876
1520531127.1881535,0.0790150451006324,-0.0066681854661744,0.0076209540616675,0.5725295303012613,0.2961477745399578,9.783148020840194
1520531127.1931696,0.0684655084859303,-0.0034692760919067,0.0084766480651721,0.5256293894960572,0.3105411123595315,9.831238388092803
1520531127.1981845,0.055403160000325,2.0761685304829597e-05,0.0090686864907983,0.5376550666255967,0.2901547885618667,9.88111340632721
1520531127.2032006,0.0420879680277602,0.0005888429922999,0.0126149656415135,0.5749346657271691,0.227796583085495,9.905216378257578
1520531127.2082176,0.0300307678044151,0.002908637465032,0.0150900661041247,0.5737320980142153,0.2110087108176793,9.921514469422569
1520531127.2132316,0.0167194883970129,0.0052199269183099,0.0205435050380061,0.5617064208846757,0.2074122261470867,9.914662164279266
1520531127.2182477,0.0049229528588211,0.0124846156377491,0.0263024819784237,0.5388576343385506,0.2433882183888001,9.96017309438842
1520531127.2232635,-0.0058697046146813,0.0197540687657619,0.0304363166503487,0.5484781760421823,0.2457857499559091,9.939158524082568
1520531127.2282796,-0.0184256801070971,0.0229390787364757,0.0361655705662461,0.5448704729033204,0.2289980650080227,9.933399290230245
1520531127.2332945,-0.0299810314741539,0.0243834596762769,0.0391741601181883,0.5388576343385506,0.2289985333078457,9.979943573681142
1520531127.2383096,-0.0417839415929871,0.0287423158645331,0.0419349013505965,0.4582855975706359,0.1558572426972884,10.062149218951271
1520531127.2433257,-0.0541032962410006,0.0272929522346789,0.0373473751340224,0.4606907329965438,0.0671206640448067,10.112184529974316
1520531127.2483406,-0.0671717997653033,0.0278764290496397,0.0352117237475404,0.6074039939769258,0.2373871776537539,10.11640118668795
1520531127.2533565,-0.0777188782966575,0.030774484292733,0.0395822913124514,0.5364524989126427,0.2901548822218313,10.104256750593708
1520531127.2583723,-0.0890146234984499,0.0354110817290772,0.04748469420575,0.5196165509312874,0.2649742445696653,10.132336632409176
1520531127.2633877,-0.0927688045819591,0.043261690080436,0.0532331821721046,0.4979703320981162,0.2985518623045884,10.106947414933035
1520531127.2684045,-0.1015592964471354,0.0452906515168493,0.0559705380427802,0.5400602020515046,0.3069425671697177,10.06817880209414
1520531127.2734196,-0.1035577729643743,0.0508116012697246,0.0614274283678576,0.5220216863571954,0.2625757764029104,10.091640522577157
1520531127.2784345,-0.1055680381633253,0.048468810941031,0.06547156591007,0.4739189778390372,0.2230078888288695,10.103768752571636
1520531127.2834506,-0.1090871901143968,0.0475925505505009,0.0657419766758409,0.4715138424131294,0.1858347230229997,10.136368442919364
1520531127.2884665,-0.11235442773251,0.0470070447117377,0.0662846896995514,0.4498676235799582,0.1558578983170406,10.13428407950784
1520531127.2934816,-0.1113568889907617,0.0408861781675503,0.0670477757026684,0.4883497903944848,0.1690454458557151,10.05487086608355
1520531127.2984965,-0.1095910266445753,0.044084084414818,0.0700449674330882,0.4883497903944848,0.1306729523065032,10.064205436573294
1520531127.3035126,-0.1035642573817272,0.0397105804209504,0.0718942410662413,0.5063883060887939,0.115082721902667,10.016397160014163
1520531127.308529,-0.09728276286261,0.0359112027643965,0.0769940448975571,0.4354368110245108,0.1174865286874038,9.989193964763556
1520531127.3135436,-0.09150698271085,0.0324146676211371,0.0777682709263054,0.3729032899509054,0.0851146075734153,9.950321305414011
1520531127.3185596,-0.0842303565471077,0.0254293931942912,0.0758075606326983,0.3692955868120435,0.0935088715171992,9.885268173772271
1520531127.3235765,-0.0734326927308531,0.0184360275411473,0.0773574128600088,0.4234111338949714,0.1426694141787201,9.913747102179332
1520531127.3285906,-0.0628804353688965,0.0146426942152089,0.0808260070203047,0.5087934415147018,0.1870309599875101,9.80479338987845
1520531127.3336077,-0.0513195483991432,0.0143507396253588,0.082696135935823,0.4715138424131294,0.2493891654638818,9.765582546543232
1520531127.3386216,-0.0374975443495007,0.0134761736497302,0.0848281640671814,0.4137905921913397,0.3033549801957616,9.783523928298743
1520531127.3436377,-0.0224251580711505,0.0094026976001306,0.084769037476568,0.4065751859136161,0.3369314740111095,9.749859242465956
1520531127.3486526,-0.0093657106849123,0.0047514923001543,0.082544831334296,0.457083029857682,0.3309318381755322,9.75053562074652
1520531127.3536696,0.0069635225788432,0.0012627344449846,0.0819467255061426,0.4534753267188202,0.3009536085701042,9.67273632446436
1520531127.3586843,0.0210326972825986,0.0001092657257575,0.0794767835985992,0.4378419464504187,0.2781711581047994,9.657802836238798
1520531127.3636997,0.0343440198119635,-0.0024948651169487,0.0745622133712108,0.383726399367491,0.2445994409476458,9.64441657782634
1520531127.3687155,0.0511713226648638,-0.0080172903035429,0.0717832453321378,0.3512570711177343,0.2505976718837542,9.595916721576398
1520531127.3737316,0.0627143600223949,-0.0167382716839204,0.0657430737925423,0.3308134199975172,0.2517984045265652,9.490359438362455
1520531127.3787465,0.0762738568074059,-0.0219662216788567,0.0613491208658987,0.3272057168586553,0.2589935280469362,9.42182104419731
1520531127.3837616,0.0870724576419237,-0.0234014283814015,0.0548248348370544,0.2923312531829907,0.3261481078970302,9.384906401300675
1520531127.3887763,0.0946077334234908,-0.0236789327764268,0.0507504216150866,0.285115846905267,0.3177546868929277,9.374525521426012
1520531127.3937943,0.1023965975617748,-0.0216223487732961,0.0456111427687194,0.2947363886088987,0.3561264311624228,9.372070174210174
1520531127.3988085,0.1134543694097998,-0.0184004036010876,0.0410157806528658,0.2418234092389248,0.3417408671199106,9.398166395756746
1520531127.4038255,0.1207478533806242,-0.0102212992805505,0.0345713905650364,0.2081515132762141,0.3393452087520935,9.360145725525951
1520531127.408841,0.1272839203288153,-0.004957792461703,0.0286472615857275,0.2117592164150761,0.3405440681956125,9.326407266345068
1520531127.4138556,0.1338105782989789,-0.0043462400445925,0.018899920698848,0.1576436693321481,0.2793921212999629,9.366506524629433
1520531127.4188716,0.1390748928708721,-0.007228152077366,0.0077755069251038,0.1708719141746417,0.2530100017252692,9.365241350518016
1520531127.4238875,0.1448353364121135,-0.0153569739835315,-0.0025782181430517,0.2213797581187075,0.2614000509706463,9.284553619932248
1520531127.4289036,0.1490904019402093,-0.0234943993646931,-0.0099531380166659,0.3308134199975172,0.2565949662202167,9.31719531182681
1520531127.4339197,0.1528495462445079,-0.0307760788517545,-0.0105568077902779,0.3380288262752409,0.3273436892417885,9.276381052074852
1520531127.4389336,0.1571142402925753,-0.0342622782622469,-0.0138379698604202,0.2947363886088987,0.3861049417477446,9.220962226680449
1520531127.4439497,0.1593751025728199,-0.0316243627953796,-0.0192330805201004,0.2550516540814183,0.3861080325265763,9.14813342442671
1520531127.4489655,0.1608872942504951,-0.0287113836513362,-0.01867255821483,0.3079646334513921,0.3789090689476568,9.198759751965092
1520531127.4539816,0.1641602438912864,-0.0266813385042612,-0.0146048755816716,0.3163826074420698,0.422077468570768,9.235824326892132
1520531127.4589963,0.1679271270819848,-0.0298909189199002,-0.012471963201937,0.3248005814327473,0.4256742342212545,9.250846754884249
1520531127.4640117,0.1719390168329244,-0.0380553947061123,-0.0098362182039343,0.2754953052016353,0.4544574444417117,9.28151434086543
1520531127.4690275,0.1757015875644035,-0.0447630463114016,-0.0071888910561123,0.2911286854700368,0.4676467715197136,9.226728546551843
1520531127.4740436,0.1759488326660486,-0.0500180673820812,-0.0034417307723389,0.3656878836731817,0.4736366667189731,9.270158456617493
1520531127.4790585,0.1756954559870136,-0.0552798412434545,0.0027412760210881,0.4282214047467871,0.5311905367246319,9.290412256575284
1520531127.4840746,0.1784490913248268,-0.0649024603749072,0.0056387851048007,0.4029674827747541,0.5479804695116686,9.328992442499974
1520531127.4890916,0.175175114489716,-0.073368460209799,0.0109913009513745,0.3729032899509054,0.5731647599024539,9.339719808374358
1520531127.4941056,0.1703918078864655,-0.0818299517604663,0.0144527958662676,0.3957520764970305,0.568366418669475,9.397609287370212
1520531127.4991217,0.1691244855388815,-0.0917462591389466,0.017626095332913,0.410182889052478,0.5431833458582296,9.405628390496874
1520531127.5041366,0.1663488017669905,-0.1007831762202559,0.0186444972279052,0.4246137016079253,0.5287925368577,9.378772650943716
1520531127.509153,0.1650872463604404,-0.1051573501316289,0.0196956681482229,0.3873341025063528,0.4796306829566747,9.433804216450463
1520531127.5141666,0.1630691129092017,-0.1106937153634595,0.0193866174176101,0.4113854567654318,0.4940184948383372,9.41496177998344
1520531127.5191836,0.1625716117698331,-0.1095400290624562,0.0237251775398108,0.4655010038483596,0.4904168588696919,9.414438560462006
1520531127.5241995,0.1593047661815144,-0.1112976288900012,0.026693911285394,0.5184139832183335,0.5191921079931586,9.46154337596024
1520531127.5292146,0.1557875861758089,-0.1136439236762162,0.0318230327508392,0.5087934415147018,0.5491713678581972,9.440689191754466
1520531127.5342305,0.1593131127075218,-0.1098618307545032,0.0345508576930777,0.577339801153077,0.5575600122041053,9.429554522575447
1520531127.5392466,0.1573108569231394,-0.1054991348001214,0.0372933967179044,0.604998858551018,0.6031251941146087,9.438538023019907
1520531127.5442626,0.1545532972237704,-0.1020101593631754,0.0397601207607151,0.6134168325416955,0.6295056278099398,9.468646104971128
1520531127.5492766,0.1522987781985978,-0.0970589653612071,0.0403432055122224,0.6086065616898798,0.5827395259366962,9.460603521748036
1520531127.5542936,0.1500492733804393,-0.0889047268522203,0.0417623818898389,0.5845552074308008,0.5395723438931247,9.52944621238848
1520531127.5593076,0.1485488743166073,-0.08249048739862,0.0401908147308704,0.6001885876992021,0.4940037902238958,9.597904974845353
1520531127.5643237,0.1447869661430916,-0.0743215425704594,0.0359313276341889,0.6639246764857616,0.4904014049755337,9.64842244885815
1520531127.5693395,0.1407748568502079,-0.0661563383531796,0.0330250367402849,0.7240530621334591,0.4724096156261109,9.667611183347306
1520531127.5743556,0.1347504633589135,-0.0600345271955546,0.0311891016189894,0.7360787392629986,0.4208456408197115,9.661733694599684
1520531127.5793705,0.1249603706305665,-0.0512924605564867,0.0296507210104511,0.7865865832070645,0.4136468645607212,9.657762666402622
1520531127.5843866,0.1186965571679521,-0.0364292120356167,0.0278819451717145,0.7348761715500447,0.3908672238943543,9.661774633137352
1520531127.589403,0.1086622106133837,-0.0203931610658867,0.0228825117724712,0.702406843300288,0.3728826463622053,9.680702513017112
1520531127.5944183,0.0978694355703864,-0.0078547482213643,0.0181283474152281,0.7348761715500447,0.3668844154260969,9.675743747372977
1520531127.5994346,0.0921006141775681,0.0035215524869558,0.0128148644595178,0.7444967132536763,0.3440999981015356,9.669861604596214
1520531127.6044495,0.0825639883043124,0.0184031887246146,0.003747416833975,0.7276607652723209,0.3381056072239755,9.688625625349935
1520531127.6094646,0.0692615298959852,0.0353201260959273,-0.0042152847617257,0.7444967132536763,0.3716802278400316,9.700050452603168
1520531127.6144795,0.0587184776986361,0.0496200563189693,-0.0138264034566048,0.776966041503433,0.4544183882364756,9.748463777748634
1520531127.6194966,0.0476674019456461,0.0545714465323178,-0.0145797128701074,0.8106379374661435,0.537156454972955,9.860783315319726
1520531127.6245117,0.0363503297182262,0.0475708736536415,-0.0135298807867232,0.8839945679563346,0.5575361289131335,9.93675092908894
1520531127.6295276,0.0277946827012439,0.0376538963576558,-0.0111546840329131,0.9020330836506438,0.5719244090946191,9.969101351889686
1520531127.6345437,0.0205050721057504,0.0329743200889047,-0.0057658005049736,0.9693768755760652,0.6030968151453364,9.964929034046664
1520531127.6395586,0.0167354445750112,0.0279974533597661,0.0023197847708701,0.9838076881315124,0.6654509932432306,9.85548623603197
1520531127.6445725,0.0179993600245909,0.0282660203705976,0.0109771429086625,0.8563355105583937,0.6822488871272578,9.845089161721468
1520531127.6495895,0.0195191612227781,0.0361296227543489,0.0126576412478008,0.774560906077525,0.6786578347346117,9.82264573449182
1520531127.6546056,0.0225511540986406,0.0469062042821435,0.0148986618922096,0.7661429320868474,0.6510782606158678,9.76813379884125
1520531127.6596203,0.0288512235705612,0.0600216978299335,0.0147164867534568,0.7589275258091237,0.6726633501970871,9.710075783362356
1520531127.6646357,0.0391693065065492,0.0725625534914148,0.0120874848086326,0.7601300935220777,0.6918495033117285,9.669370330480266
1520531127.6696515,0.0477275488370293,0.08422710952009,0.0099961724625813,0.6843683276059787,0.6846605613490208,9.652682605757334
1520531127.6746666,0.0613026214351582,0.0909481104373656,0.0048817283459271,0.6735452181893932,0.6546828937033803,9.64119574520422
1520531127.6796825,0.0743739986653896,0.0976725565988969,-0.0015845118036905,0.7589275258091237,0.6510788225756554,9.61944960303976
1520531127.6846976,0.0897107113265421,0.1049711883110076,-0.004533409645415,0.7986122603366042,0.6330886254456307,9.599324429044714
1520531127.6897137,0.1027842329899899,0.10905423451914,-0.003985464269387,0.7938019894847882,0.6031104895001673,9.622643361836042
1520531127.6947286,0.1123347803132601,0.1113956079276772,-0.0064203281343315,0.7637377966609394,0.5851257246480891,9.726384340260946
1520531127.6997457,0.1206278612151241,0.111398128529485,-0.0061651841063839,0.7673454997998014,0.5851254436681954,9.741457096496516
1520531127.7047615,0.1291740443357231,0.1125655572649381,-0.005631068564568,0.8106379374661435,0.575528948522167,9.732910061499632
1520531127.7097766,0.1349587512596597,0.1140152747749798,-0.0021135911265444,0.7853840154941105,0.6282930940115898,9.773779455155267
1520531127.7147915,0.1435109600530682,0.1189677886409692,-0.0004683918920989,0.7384838746889065,0.647482993524815,9.78583868247009
1520531127.7198076,0.1485440168954052,0.1230440421164287,0.0014472181081174,0.6903811661707485,0.6450884590765731,9.803741382718927
1520531127.7248237,0.1525681383440763,0.1242053280657247,0.0036130100442245,0.6278476450971431,0.6139156783859973,9.789272577068736
1520531127.7298396,0.1528244435159168,0.1244815139961354,0.0092962302201886,0.6074039939769258,0.5971293046776152,9.853405851259527
1520531127.7348557,0.155594932728681,0.1285597950959909,0.010133857146242,0.5713269625883074,0.5863398506658372,9.817741064424771
1520531127.7398696,0.1518267244220559,0.1288467890658873,0.0112252646642263,0.5220216863571954,0.5611617418327153,9.80894837622874
1520531127.7448857,0.1465458853538673,0.126222260753876,0.0112150580851378,0.4390445141633727,0.5323888342083635,9.81559480903524
1520531127.7499025,0.1420174491012979,0.1233102854365359,0.0098484987714195,0.4318291078856491,0.495216043042352,9.851727751471332
1520531127.7549176,0.1342225710865976,0.1218590518510929,0.0066053010154677,0.4414496495892807,0.5024101363031125,9.83070850380848
1520531127.7599325,0.1229166759691511,0.1238950414738353,0.0063713192639431,0.5256293894960572,0.5431743545016285,9.84263297582056
1520531127.7649477,0.1103560861637778,0.1256318699808983,0.0088429070024777,0.6122142648287417,0.6079211938484727,9.859159226751672
1520531127.7699635,0.1003060226338104,0.1262070586584777,0.0102187515834559,0.6001885876992021,0.6990568026274968,9.868484559166712
1520531127.7749796,0.088488642275842,0.1215402788113324,0.0102051182122546,0.5400602020515046,0.7038580473193781,9.899280877440727
1520531127.7799945,0.0741558547334724,0.1154170486344414,0.0096439448554161,0.5508833114680901,0.6690821321007234,9.917803746038636
1520531127.7850106,0.061837284145048,0.1116234970270236,0.0099084600825874,0.55689615003286,0.672679085071139,9.922390288555633
1520531127.7900257,0.0500227186425215,0.1087035674815001,0.010449257015046,0.5412627697644586,0.679875145191156,9.886508975672882
1520531127.7950406,0.0382121088271201,0.1072340046928307,0.0134360824371637,0.528034524921965,0.6702830520634636,9.87270135855694
1520531127.8000576,0.0274066080841474,0.106350518505185,0.0153433035532104,0.5136037123665177,0.6882712823342318,9.887932150550158
1520531127.8050735,0.0178630116555568,0.1089619536295591,0.0180865057643192,0.4871472226815307,0.7266458364026648,9.906746546203054
1520531127.8100886,0.0078202910500636,0.113317856851268,0.0221967094133343,0.4943626289592545,0.7878014360369336,9.911265255379638
1520531127.8151035,4.013807414317283e-05,0.1176717324485809,0.0273848961365125,0.457083029857682,0.8381682372791767,9.925524727330997
1520531127.8201206,-0.0072431371305404,0.117654308616516,0.0328093490294055,0.429423972459741,0.8633523403500327,9.944363690772065
1520531127.825137,-0.015029009993401,0.1176366878733677,0.038234735368841,0.4149931599042937,0.8309766728374602,9.97242717851018
1520531127.8301516,-0.0218124122192933,0.1167504063879821,0.041757764287954,0.3729032899509054,0.8345773722064598,9.925185445344365
1520531127.8351665,-0.0298569699576792,0.1132448140345912,0.043910389576131,0.3512570711177343,0.8129945304643907,9.91495788887856
1520531127.8401823,-0.035132536087078,0.1120662818930272,0.0479694868621089,0.3897392379322607,0.818987235462588,9.91457748037667
1520531127.8451965,-0.0401618136622715,0.1091482822160612,0.0487682281621431,0.360877612821366,0.8010023769505452,9.918362373682305
1520531127.8502145,-0.042171549601278,0.1076818307624496,0.0520073972725806,0.4186008630431554,0.7662228089932714,9.912023722040988
1520531127.8552306,-0.0451892055360241,0.1053459309222673,0.0533479427488659,0.4642984361354058,0.7638209690677911,9.876716949948715
1520531127.8602457,-0.0502174285234596,0.1027171304793908,0.0549605448219134,0.4823369518297149,0.7422350365468904,9.92072389246914
1520531127.8652596,-0.0504760742091533,0.0974728389636449,0.0546504501137109,0.4727164101260834,0.7122572752412855,9.877847440095689
1520531127.8702765,-0.0497303635564379,0.0904755350888338,0.0562189712718742,0.4642984361354058,0.681080279852303,9.870986914585847
1520531127.8752923,-0.0492392017400102,0.0831962178350695,0.0542686394212833,0.4173982953302017,0.7074650219060054,9.887687701682047
1520531127.8803077,-0.0482456618073496,0.0759178259234565,0.0520468282282484,0.4727164101260834,0.6858761859262024,9.874386733696522
1520531127.8853226,-0.0442319686667634,0.0689181598153482,0.0549620114633907,0.4859446549685768,0.6546975046578571,9.885909820438515
1520531127.890339,-0.0382139105662789,0.0581341962210369,0.0567623772197329,0.503983170662886,0.665488363569104,9.911290887531694
1520531127.8953536,-0.0306773724514029,0.0537547270808092,0.0610437635763692,0.4895523581074387,0.6714851896057434,9.927695516871628
1520531127.9003696,-0.0251600184433925,0.0450131719907361,0.0617784407928162,0.4715138424131294,0.6846771391627541,9.946452533253783
1520531127.9053843,-0.0206450488284251,0.0365545948640432,0.0654932128425717,0.4065751859136161,0.7050675839988609,10.013306932924047
1520531127.9104006,-0.0138681231556236,0.029266812532804,0.0675894013487161,0.4161957276172476,0.6990711326020798,10.036462018253268
1520531127.9154155,-0.007845972137864,0.0219816485592109,0.0686048064410697,0.4149931599042937,0.7194566134600633,10.052723859901516
1520531127.9204326,-0.002073712521472,0.0155698112808869,0.0698978934085245,0.4775266809778992,0.7254474452589688,10.069541509584388
1520531127.9254465,0.0036999074685473,0.0088607620267277,0.0733531244578797,0.4727164101260834,0.7086598539710468,10.099820443369286
1520531127.9304636,0.0084669678364544,0.0009850524101623,0.077071875954983,0.531642228060827,0.7206466688669104,10.149207392243325
1520531127.9354796,0.0147421740188554,-0.0063058405564314,0.080251181491275,0.4883497903944848,0.7542259724811962,10.154244608592556
1520531127.9404943,0.0190044373770133,-0.0156379412894768,0.0836892051124718,0.4763241132649451,0.7854045600895767,10.21708702986416
1520531127.9455085,0.0217604524185113,-0.0220487747410975,0.0841762550714788,0.5593012854587678,0.7518221656964593,10.260473592730063
1520531127.9505265,0.021501763610855,-0.0270002248674149,0.0833272916567834,0.5436679051903665,0.7590182258164764,10.307104500596871
1520531127.9555416,0.0247661824413953,-0.029625047846348,0.0846539459659761,0.55689615003286,0.7602163359802786,10.32440673495022
1520531127.9605565,0.0255109718043715,-0.0363265966074595,0.0846014148340416,0.5268319572090112,0.7398332902813747,10.308449224769053
1520531127.9655716,0.026258670130977,-0.0389400208136567,0.0813334561456266,0.4775266809778992,0.6762826878990409,10.320612546604954
1520531127.9705875,0.024495583450401,-0.0386347568537995,0.0759280283758108,0.4727164101260834,0.6475036923769903,10.300930983750929
1520531127.9756036,0.0222235715851002,-0.0400648852095624,0.0656403694144579,0.4270188370338331,0.6091347579064332,10.310710346384868
1520531127.9806197,0.018701969414943,-0.0377133344367687,0.0575483113456961,0.4366393787374648,0.5779563576179818,10.342024995517864
1520531127.9856355,0.0151818217266004,-0.0333177213865179,0.0478485394986941,0.4486650558670043,0.5467777700096011,10.303587597284864
1520531127.9906497,0.007142870237791,-0.0257193791668633,0.0384521685048825,0.4835395195426689,0.5287879475194348,10.281184955607085
1520531127.9956656,0.0008651197281169,-0.0175419492902381,0.0306802519941983,0.5015780352369782,0.5347822447370303,10.339110730775396
1520531128.0006816,-0.0046601887761062,-0.0114082863244448,0.0245146490919403,0.4871472226815307,0.5539696154312114,10.26950384477137
1520531128.0056975,-0.011947980253429,-0.0090691388507934,0.0204877803107668,0.5015780352369782,0.5635616148989392,10.268191885426038
1520531128.0107136,-0.0182294747725461,-0.0052697611942396,0.0153879764794511,0.531642228060827,0.5335807628145025,10.27141492435928
1520531128.0157275,-0.0250118968582126,-0.0008907251184545,0.0113757358489021,0.5388576343385506,0.5119956732332833,10.296932909120038
1520531128.0207446,-0.0297794433641016,0.0058158042336001,0.0090008214900666,0.5376550666255967,0.4748224137674489,10.279548704379918
1520531128.025761,-0.0363012870085399,0.0157254173349493,0.0071947199243383,0.5124011446535637,0.4388501679243192,10.299586037964083
1520531128.0307755,-0.0443285949100491,0.0262121097401595,0.0072896861401657,0.5136037123665177,0.482019129507218,10.290235085060916
1520531128.0357916,-0.0500935939137612,0.0384538228575446,0.0052294231911989,0.5941757491344324,0.5227836286856278,10.269654641524143
1520531128.0408063,-0.0576231811339576,0.0477861005306837,0.0012563751807269,0.5833526397178468,0.5731483694086497,10.28481874618834
1520531128.0458217,-0.0674105923048815,0.0576900631235842,0.0010796163929331,0.6170245356805575,0.6163148021725043,10.314664651205115
1520531128.0508375,-0.0754421224895536,0.0655564800763618,0.0003429371532706,0.6603169733468996,0.6426925197288621,10.358379013970602
1520531128.0558536,-0.0819786598472023,0.0649777070573026,-0.0020842872754053,0.7108248172909657,0.6139092158484403,10.355591177834253
1520531128.0608697,-0.0907677011626951,0.0675872522550982,0.0014691524535932,0.7348761715500447,0.6139073426491484,10.3902213953323
1520531128.0658836,-0.1003138458506898,0.0696217457734289,0.002043541326873,0.6663298119116695,0.5983238557627629,10.467605285937305
1520531128.070901,-0.1106238723180156,0.0649570135216693,0.0014860158242412,0.5977834522732942,0.5719481050656616,10.478757495205066
1520531128.0759156,-0.1229381775013145,0.0634908959772556,0.0031210452133954,0.5989860199862482,0.6031256624144318,10.499633978504091
1520531128.0809317,-0.1360010081927707,0.0672752320060313,0.0026331231407263,0.555693582319906,0.6055273150199829,10.482620862543651
1520531128.0859466,-0.1480519122151375,0.0760134988209528,0.0021811266252348,0.529237092634919,0.5983345329987267,10.478236814003653
1520531128.0909626,-0.158595552522918,0.0838760174940424,0.0025312982018904,0.5629089885976297,0.5887387871324151,10.473269851320838
1520531128.0959775,-0.1701461954688299,0.0891098541507868,0.0050276960710548,0.553288446893998,0.5935360981057833,10.441980927651334
1520531128.100993,-0.1827102587554775,0.0891020176494314,0.0061332158182258,0.6579118379209918,0.6642772346702229,10.468785051627776
1520531128.1060083,-0.19526896285941,0.0899544945396665,0.012385776843449,0.6735452181893932,0.6678734383609218,10.501169408594622
1520531128.1110246,-0.2065745639873802,0.0870136374042599,0.0207714713105007,0.6687349473375773,0.6187090556408525,10.511723467317534
1520531128.1160395,-0.2166322449021216,0.079711245809982,0.0258749351307373,0.6627221087728076,0.6402940515621072,10.475734481912378
1520531128.1210566,-0.2264402069033461,0.072706893078149,0.028545242249901,0.6037962908380641,0.6007270069277476,10.43218514761218
1520531128.1260705,-0.2367503706008218,0.0659937279625255,0.031218705900917,0.5929731814214785,0.5743467605523458,10.395127612048498
1520531128.1310875,-0.2437876669693004,0.0633597692889087,0.0344583171355424,0.604998858551018,0.5419690325205523,10.433392884133204
1520531128.1361015,-0.2523309921124949,0.0636463494656488,0.0350175006038794,0.6182271033935114,0.4796127002434724,10.435649222061938
1520531128.1411183,-0.2603671444743866,0.0671376279226262,0.0358707504599804,0.5881629105696626,0.4292511439592468,10.39647806627763
1520531128.1461337,-0.2704116174833016,0.0729628371089523,0.0353927893052226,0.5869603428567087,0.3704933568719807,10.369817758010251
1520531128.1511505,-0.2781990623974716,0.0761701138048566,0.0335378903937303,0.6206322388194194,0.3584993301588433,10.342772398875775
1520531128.1561646,-0.2847262770210181,0.0808289779663913,0.0338561404596393,0.6110116971157877,0.3704914836726888,10.357962217339535
1520531128.1611814,-0.2907511135283318,0.0854887674700772,0.0339029111831044,0.6254425096712352,0.3620963767892236,10.333424918998563
1520531128.1661956,-0.2982839704163825,0.0872217376394313,0.0385295316234225,0.6374681868007745,0.3752859848471191,10.353051452924282
1520531128.171213,-0.3048140508815957,0.0874996358566234,0.0426020779523049,0.6386707545137286,0.3513030827188971,10.396062460958955
1520531128.1762276,-0.3115942422901204,0.0886515892001524,0.0466817602603874,0.6074039939769258,0.347708096607738,10.384748860901595
1520531128.1812437,-0.3186254228097334,0.0906805113942897,0.0496863949640651,0.6134168325416955,0.3417119261908506,10.416074069079633
1520531128.1862595,-0.3228886192540234,0.0959179316928106,0.05189871196246,0.7036094110132419,0.3081289698379457,10.382688900628516
1520531128.1912746,-0.3276610114112072,0.0967865724640583,0.05326697844005,0.7420915778277684,0.3572907300790063,10.360185660783475
1520531128.1962895,-0.3306780949640462,0.0950341701095296,0.0543414241910533,0.750509551818446,0.3896668658914017,10.333342842281713
1520531128.2013066,-0.3347016950170348,0.0918222660031662,0.0562182590962975,0.8034225311884199,0.3920610256997852,10.271231851546842
1520531128.2063217,-0.3384790966918744,0.0859930986241832,0.0561807982391756,0.8238661823086371,0.3848645909399099,10.268715593714656
1520531128.2113366,-0.3384815195175217,0.0830741543337797,0.0580523886573884,0.7901942863459265,0.3728758091847898,10.249298581465364
1520531128.2163506,-0.3387393732793642,0.0784126318726195,0.057746740119805,0.7877891509200186,0.3596854518471775,10.162174057743528
1520531128.2213686,-0.334974332668144,0.07579456168438,0.056637547919344,0.7841814477811567,0.3033261329266663,10.16226413185754
1520531128.2263837,-0.3317113212653247,0.0722963135546359,0.0576869870767067,0.7986122603366042,0.3225112557816971,10.13886208266805
1520531128.2313995,-0.3279453123102717,0.0705531253793429,0.0563139182362732,0.7865865832070645,0.3404992987325361,10.020422909813217
1520531128.236415,-0.3199082386586411,0.0667660918086657,0.05708172067027,0.774560906077525,0.359686482106788,10.008899811407291
1520531128.2414303,-0.312375432756815,0.0623990059965906,0.0567638267965853,0.7541172549573079,0.3704803381369019,9.988169682137348
1520531128.2464457,-0.3025797965615094,0.0577363227396232,0.0583333305994578,0.7192427912816434,0.3405045436905534,9.936241884315091
1520531128.2514615,-0.2910242727066022,0.055120576242108,0.0574802158734871,0.7697506352257092,0.3189160823506087,9.863718394890098
1520531128.2564776,-0.2819788360432127,0.0536650127119407,0.0582639360968753,0.701204275587334,0.278150646572553,9.81445315060946
1520531128.2614925,-0.2734331390605956,0.0536632611828832,0.060141888776959,0.678355489041209,0.2469747751031457,9.798435934142985
1520531128.2665117,-0.2603670936196408,0.0533806384990968,0.0587626666020346,0.6350630513748667,0.2193979171233751,9.79191134725176
1520531128.271525,-0.2490554746831231,0.0571796237328903,0.0563356511007387,0.6422784576525905,0.1606394744163568,9.712872625649537
1520531128.2765396,-0.2367363277806606,0.0630201513420364,0.0533812385117221,0.6074039939769258,0.1174731353124667,9.71906488826998
1520531128.2815557,-0.2249249260414079,0.0650724831852916,0.0503988592602236,0.6314553482360049,0.1198695429600006,9.703720577058109
1520531128.2865703,-0.2133697471622016,0.0647994678032044,0.0452347948823099,0.6374681868007745,0.1294621980474806,9.632761915854612
1520531128.2915866,-0.2033192916024396,0.0630521851368431,0.0462849710232044,0.6398733222266826,0.1450508362319187,9.571129674757902
1520531128.2966006,-0.1892521829522375,0.0610274765600086,0.0427261762761273,0.6482912962173603,0.149846742305818,9.5152601522034
1520531128.3016176,-0.176192425847999,0.0572533385661822,0.0394264558061792,0.6579118379209918,0.1702313802241201,9.45471514736535
1520531128.3066337,-0.164135801938692,0.0528865680917218,0.0396412527054132,0.6723426504764393,0.2038061881601054,9.440596217738616
1520531128.3116486,-0.1528333842346509,0.0476424349444864,0.0409329641021374,0.6819631921800708,0.2253899665018202,9.43234652150118
1520531128.3166635,-0.1390180252938187,0.0412286492260217,0.0441049371962186,0.7048119787261959,0.2193924848454286,9.432129972125328
1520531128.3216796,-0.126708040434001,0.0362697385486357,0.0478319178482781,0.7156350881427814,0.2421753099505918,9.455245288256132
1520531128.3266966,-0.1143978399643703,0.0298466209241072,0.0542532420328021,0.7853840154941105,0.2469664393662968,9.45107528576375
1520531128.3317115,-0.1010867095835111,0.0210964630587413,0.0593021851622578,0.7408890101148145,0.2517664664786383,9.424774384547485
1520531128.3367276,-0.0905384118408106,0.014389284459874,0.0627485484694578,0.7541172549573079,0.2085963809761644,9.421201293277123
1520531128.3417425,-0.0777178317046405,0.0117456214284228,0.0724443900672786,0.7084196818650578,0.1918119741270388,9.34263666728392
1520531128.3467565,-0.065655103742861,0.0076512962734923,0.0796956033452542,0.6879760307448406,0.227787779048823,9.304449822576444
1520531128.3517745,-0.0515871287212756,0.0012332384241624,0.0844903850914715,0.6567092702080378,0.2002099844694065,9.207160956691864
1520531128.3567896,-0.0407828237283418,-0.0016843860022199,0.0874240899926224,0.5953783168473864,0.1594439867315632,9.16014976998111
1520531128.3618057,-0.0307322819246546,-0.0040173514474382,0.0895520035465027,0.55689615003286,0.1594469838504303,9.151227180152995
1520531128.3668196,-0.0191672589156637,-0.0011033478059988,0.0911760405045252,0.5725295303012613,0.1354629578026331,9.120882658394752
1520531128.3718376,-0.0075999463790443,0.0041446457780549,0.0917356785614195,0.5761372334401231,0.0695099535350314,9.120911856884204
1520531128.3768525,0.0014552952242983,0.0076324211769174,0.0963448337776879,0.6182271033935114,0.0635109733192063,9.09958943542959
1520531128.3818676,0.0120170948623013,0.0090759966005052,0.10282944832847,0.6747477859023472,0.0611082904540445,9.100203780410274
1520531128.3868835,0.0213239842025644,0.0116846178555561,0.109325288836847,0.6543041347821299,0.0395253550520109,9.058586632124126
1520531128.3918986,0.0298709513827525,0.0105078586134456,0.1147114458224084,0.6518989993562221,0.0347289806782886,9.024912544921625
1520531128.3969135,0.0356469902662882,0.0052542751336152,0.1187188840901139,0.6230373742453272,0.0551166157154577,8.981012117248282
1520531128.4019296,0.0409219251632931,0.0002882371146552,0.1240822083691778,0.5857577751437547,0.0455263957870572,8.93257428263429
1520531128.4069457,0.0479614090869508,-1.2045554555419403e-05,0.1283956513666909,0.5436679051903665,0.0059580399131933,8.902806804994754
1520531128.4119616,0.0555050353266563,0.002609726701992,0.1297543869158438,0.5148062800794716,-0.0408061887607583,8.860134004273613
1520531128.4169765,0.0602844646224448,0.0061082116847986,0.1297721961974037,0.4510701912929122,-0.094762543836214,8.835239825537622
1520531128.4219935,0.0617966563001201,0.009021190828842,0.1303327185026742,0.4366393787374648,-0.1511210198170438,8.852867404472759
1520531128.4270077,0.0660683443648297,0.0101949585618324,0.1278987634851889,0.4991728998110702,-0.1535241709820284,8.883638966981009
1520531128.4320235,0.0678294591000398,0.0113597289976601,0.1284454805553305,0.5460730406162744,-0.1031639259373071,8.82618830377516
1520531128.437039,0.0698444640457051,0.0128086981056444,0.1316994129465227,0.5593012854587678,-0.0575976201072285,8.835312264896736
1520531128.4420545,0.0713575770131194,0.015425922135988,0.1338809875418909,0.5412627697644586,-0.0108297386946576,8.826145084878641
1520531128.4470685,0.0738679268685438,0.0139721693481438,0.1330535671949261,0.5364524989126427,0.0815044485479918,8.835399017615874
1520531128.4520864,0.0748690802538474,0.0131078791923133,0.129527934399196,0.5003754675240243,0.152256543328289,8.885653368324354
1520531128.4571016,0.0768777184831333,0.014577972801264,0.1249360358092524,0.5340473634867349,0.2206049249838139,8.93174473257595
1520531128.4621177,0.0753737165721392,0.0201260714147315,0.1203817945394415,0.532844795773781,0.2529818100759261,8.91429270615935
1520531128.4671326,0.0711082855185764,0.0271270959294337,0.1169259862357681,0.5256293894960572,0.333324780404376,8.97704036429601
1520531128.472149,0.0668414940913862,0.0344253324199713,0.1113080338501944,0.5388576343385506,0.3537091373427843,8.971081010136983
1520531128.4771645,0.0605694085502965,0.0428766644782621,0.1100314419264493,0.5496807437551363,0.3285263455114326,8.943108765852129
1520531128.4821806,0.0565594476227603,0.0498639472582177,0.1117155389216279,0.5713269625883074,0.3237280979384184,8.951037759872989
1520531128.4871955,0.049277893495929,0.0530604943991882,0.1139178950021115,0.5605038531717218,0.2817590260586493,8.91748185758221
1520531128.4922116,0.0379748955457187,0.0547941730286206,0.1177398786037958,0.5965808845603403,0.2265957567827194,8.909049487815372
1520531128.4972255,0.0274290401578419,0.0553465834320147,0.1275035794042547,0.5869603428567087,0.2122068209814817,8.86848212194011
1520531128.5022426,0.0171285010482067,0.0518211657709856,0.1366945984953058,0.6025937231251101,0.2038116204380519,8.789312352694417
1520531128.5072577,0.0058169213015207,0.0462658606316889,0.1420842803396577,0.5400602020515046,0.1774354014411276,8.773676725733006
1520531128.5122736,-0.0080080035081441,0.0386618665041792,0.1504390726744692,0.4895523581074387,0.1990238627810723,8.683500061567326
1520531128.5172887,-0.0183225267189327,0.0272799930722592,0.1555118800236429,0.4282214047467871,0.1930329373222023,8.646914259606302
1520531128.5223043,-0.0291407021756561,0.0156087234951664,0.1597717600463459,0.4258162693208793,0.1366735247417266,8.617939029808412
1520531128.5273197,-0.0409635476209201,0.0033499204549142,0.1656523361669224,0.357269909682504,0.122289178278754,8.567485916110064
1520531128.5323346,-0.0512769260678944,-0.0068649580056985,0.1701929440655319,0.3368262585622869,0.1043036641469591,8.56189172238696
1520531128.537351,-0.0623407196565978,-0.0124085097923687,0.1712534248521928,0.3151800397291158,0.0815216819814773,8.509828152908517
1520531128.5423677,-0.0741616205499341,-0.0199905917745785,0.1717586524196981,0.3260031491457013,0.0407500646457583,8.45746608699531
1520531128.5473816,-0.0859743944592072,-0.0261361471902224,0.1798502804989858,0.3320159877104711,0.0215633495713293,8.442318399736324
1520531128.5523987,-0.0927669861211829,-0.0316751115084127,0.1798206434064293,0.3272057168586553,-0.0156096289146112,8.420320734348604
1520531128.5574136,-0.1035797905987982,-0.0380956321456911,0.181956171797495,0.282710711479359,-0.0132078826490954,8.364968572955362
1520531128.5624285,-0.1096149260483089,-0.0424753188676951,0.184368939939474,0.2670773312109575,0.0107761433987016,8.30815229814717
1520531128.5674455,-0.1146458737151301,-0.0459731738749756,0.1840810514852841,0.2730901697757275,0.0191696580627688,8.308085587490293
1520531128.572461,-0.1171675300464158,-0.0526774594202645,0.1845756795476793,0.2490388155166485,0.0827259737029428,8.348932752036257
1520531128.5774755,-0.1229526839185028,-0.0570526771003199,0.1853647055909795,0.285115846905267,0.1186973766063911,8.365978679479264
1520531128.5824907,-0.1267250243322345,-0.0585081628456384,0.1842784074298965,0.2574567895073261,0.1115046882450996,8.376714207400537
1520531128.5875056,-0.1269910090102713,-0.0660696903894391,0.1788101560170938,0.1997335392855366,0.0839289541849041,8.400545823996124
1520531128.5925226,-0.1290120788185776,-0.0695474247224565,0.1714824735902161,0.1432128567767008,0.0767385136627629,8.401102977683657
1520531128.5975366,-0.131284839485767,-0.0718531635222337,0.1617292371647369,0.1865052944430432,0.0983196695254691,8.349526213560177
1520531128.6025536,-0.1262671231860796,-0.0738726753257551,0.1549406937046126,0.1973284038596285,0.1115093712433293,8.291300807609638
1520531128.6075697,-0.1202402950727447,-0.0726851066447524,0.147633645498006,0.2201771904057534,0.1354904001722594,8.172516341422194
1520531128.6125956,-0.11547009047074,-0.0706195060731726,0.1387123247882773,0.2177720549798458,0.169066519347749,8.143453411180577
1520531128.6176016,-0.1056716628812999,-0.0659251050587163,0.1281784020055011,0.2057463778503061,0.122300979434293,8.104103171532127
1520531128.6226163,-0.099645183675797,-0.0638582837783603,0.1189842017835147,0.1937207007207666,0.1007173884125073,8.099592694386008
1520531128.6276326,-0.0933669234353547,-0.0620856622940267,0.1108694953365522,0.1756821850264573,0.1414895677080138,8.06602633802556
1520531128.6326466,-0.0853272426738331,-0.0597346815837902,0.1046497892686183,0.1684667787487337,0.1678712189828846,8.074205850580158
1520531128.6376636,-0.0742695570697333,-0.0559270536327247,0.098976689739779,0.2045438101373522,0.2014443410395071,8.172604193497003
1520531128.6426775,-0.0667321250585567,-0.0544555224329248,0.0946450691337675,0.1901129975819047,0.2386188180848812,8.209897011192389
1520531128.6476936,-0.059693205652544,-0.0524123455556397,0.0943770165834365,0.1504282630544244,0.2961806491875307,8.248577900259704
1520531128.652711,-0.0496388806495821,-0.0521235786862898,0.0967954838010043,0.1865052944430432,0.3345503329378047,8.30862081533032
1520531128.6577246,-0.0395866256323046,-0.054169530190622,0.1005488958156016,0.1660616433228259,0.3057725549952939,8.31930716101953
1520531128.6627405,-0.0310463858727209,-0.0588363478806369,0.1034734627143368,0.1432128567767008,0.3153674579219242,8.37646525613437
1520531128.6677566,-0.0215062707896667,-0.0661194050455787,0.1042117877849907,0.1756821850264573,0.3225597716433573,8.452843704553825
1520531128.6727726,-0.0119644033031906,-0.0748717681751376,0.1095382776594175,0.2322028675352931,0.3681227057147105,8.485951306682654
1520531128.6777875,-0.0014175639744358,-0.0850864875675367,0.1170161523814209,0.2490388155166485,0.3609265519347289,8.51949662660054
