Time,angular_velocity.x,angular_velocity.y,angular_velocity.z,linear_acceleration.x,linear_acceleration.y,linear_acceleration.z
1520530308.1819017,0.1045577128259435,-0.0792420275395647,0.0178416358819547,-0.352245040960327,3.211446975232013e-05,9.92376030285343
1520530308.1869175,0.0957535505097453,-0.0827289760518177,0.0129614680465137,-0.3053449001551229,0.009621585118436,9.954672337702725
1520530308.1919346,0.0874502216519089,-0.0891368572365943,0.0107635948704465,-0.2632550302017347,0.0312028346411069,9.951917324712872
1520530308.1969495,0.0816575876251979,-0.0993412223246432,0.0120492509993575,-0.180277858007912,0.0192049678694211,9.954607801074612
1520530308.2019663,0.0753648218879199,-0.1069196814228004,0.0120031188630912,-0.1273648786379382,0.027594829794869,9.944787441583356
1520530308.2069814,0.0723394270667739,-0.1133276803344051,0.01060708218603,-0.1093263629436287,0.0503770929402446,9.91553604943574
1520530308.2119975,0.0673078207741205,-0.1168233500484822,0.0095075560441364,-0.1153392015083987,0.0707629484380864,9.838873194972164
1520530308.2170146,0.0617842136870944,-0.1147931086900271,0.0122388445122849,-0.057615951286609,0.0899446995343918,9.819698339568204
1520530308.2220294,0.0585267849410653,-0.1089717970836858,0.0141831948923124,-0.0263491907498063,0.1510984259693688,9.805388644348756
1520530308.2270465,0.0572838828669817,-0.0999437396017215,0.0158777195286737,-0.060021086712517,0.2242486142765626,9.71848425966803
1520530308.2320626,0.0580584477540423,-0.0883040886268726,0.0219172524810703,-0.0347671647404839,0.2362380516514348,9.670578857967596
1520530308.2370777,0.0573316844232697,-0.072881400116873,0.0296117612575269,-0.0359697324534378,0.2350390048879865,9.60667381488122
1520530308.2420945,0.0568550790899024,-0.0571621296065643,0.0354142051247132,-0.0263491907498063,0.2434322385721598,9.577518390199584
1520530308.2471094,0.0558831759008698,-0.0373695000737809,0.0434130727999862,-0.129770014063846,0.233847169941812,9.487887151337151
1520530308.2521265,0.0591794402411787,-0.0193184049430716,0.0494968463964805,-0.2548370562110569,0.2098741021098725,9.40777778719514
1520530308.2571414,0.0624735130941776,0.0002034530143904,0.0504513633973994,-0.3005346293033071,0.1163447081623232,9.402503068029716
1520530308.2621574,0.0642571074830915,0.0170993457686951,0.0524708565537649,-0.3486373378214651,0.0815733822819337,9.392545885537036
1520530308.2671754,0.0642780503431866,0.0328355671046468,0.0520498113686802,-0.3161680095717085,0.0072241472112917,9.435301674353113
1520530308.2721906,0.069557042899766,0.0345881271279829,0.0512417110041363,-0.1682521808783725,-0.0491469728647584,9.608238504490282
1520530308.2772064,0.0687907382947876,0.024969957067489,0.0519813870464375,-0.1033135243788592,-0.0515503113496723,9.723823165543676
1520530308.2822216,0.0675069698305713,0.0060345695332174,0.0499453988463623,-0.0263491907498063,-0.0719416927854252,9.74982323164668
1520530308.2872374,0.0682381200680951,-0.0108661661142128,0.0500856056244935,0.0506151428792465,-0.0251812105100572,9.830378580599996
1520530308.2922544,0.0682106693293398,-0.0300931743291367,0.0483156066186533,0.1335923150730691,0.0443624715103321,9.882961731924183
1520530308.2972696,0.0706984885448356,-0.0499121650781789,0.050324136752098,0.1167563670917137,0.1438924378931047,9.905109282686592
1520530308.3022864,0.0726910608908907,-0.0630236811620255,0.050220364126996,0.1275794765082993,0.212242599087957,9.909585860658398
1520530308.3073025,0.0741868377775031,-0.073813059111426,0.0533818603817281,0.1528333984803325,0.2530114066247382,9.829112364097838
1520530308.3123164,0.0792072238382205,-0.079061110509339,0.0552263316520377,0.1516308307673783,0.2901848534105017,9.855817130584564
1520530308.3173344,0.08422980925051,-0.0828529677018554,0.0573524642447965,0.1780873204523654,0.3141656013595381,9.84740122487866
1520530308.3223505,0.0869970837137756,-0.0822763999469891,0.0600572354184435,0.1155537993787598,0.3525429652269089,9.799162422879634
1520530308.3273664,0.0925333576502904,-0.0764458149481465,0.059820883316765,0.034981762610845,0.3297655723996922,9.7430238253492
1520530308.3323824,0.0940517553528877,-0.0679921591991314,0.0588003688675101,-0.0275517584627602,0.2985927917091165,9.679744973621808
1520530308.3373976,0.0963256333904529,-0.0583726699743197,0.0577873465896797,-0.1442008266192933,0.254233681059406,9.651870030791915
1520530308.3424144,0.1036304630269703,-0.0437918472261527,0.054638415129476,-0.2788884104701361,0.1679060604897139,9.62304944672794
1520530308.3474295,0.107918303218836,-0.0286221525792221,0.048794071560135,-0.3486373378214651,0.0863699439755852,9.635429294611832
1520530308.3524466,0.1084305921796024,-0.0169461785065246,0.0413067764407414,-0.4231965360246099,0.0456049764973525,9.605979022835054
1520530308.3574605,0.1104457500839418,-0.0075948624703776,0.0316345291320333,-0.3606630149510046,-0.0287466000724044,9.64030717756094
1520530308.3624775,0.1117011543839257,-0.0046637710051807,0.0254318707630442,-0.2921166553126295,-0.0575313088522951,9.729153137961507
1520530308.3674934,0.1104315661014996,-0.0081331972298272,0.0151267833114389,-0.2740781396183203,-0.0455413095176354,9.769640907120284
1520530308.3725097,0.1096667277747289,-0.0113168694646398,0.0069873526658105,-0.2716730041924122,-0.0299526713331974,9.809115190040638
1520530308.3775263,0.109403342342321,-0.0156673397596763,-0.0006208119757964,-0.1790752902949581,-0.0275616023036454,9.798914410383562
1520530308.3825424,0.1041099736547936,-0.0241042615651215,-0.0063569440750026,-0.1237571754990765,0.0371876722022782,9.794826401605812
1520530308.3875575,0.1015792180634808,-0.0345834342059974,-0.0107610422478543,-0.0985032535270433,0.0395839861898474,9.845712590728002
1520530308.3925734,0.099804868029006,-0.0427290499687018,-0.0159603935957469,-0.0479954095829773,0.0467748950118117,9.888213288628709
1520530308.3975894,0.095014618395338,-0.0532163930201309,-0.0176548323001444,-0.0455902741570695,0.0899437629347458,9.906742085570372
1520530308.4026065,0.0912310577496701,-0.0634155998774395,-0.0179961853328114,-0.0756544669809182,0.0839504023167964,9.974444908021988
1520530308.4076214,0.0841774485625781,-0.0744836843590584,-0.020773053281991,-0.0516031127218392,0.1043339163155233,9.957920912767152
1520530308.4126365,0.0781342723729293,-0.0808855804264852,-0.0248689482388087,-0.1153392015083987,0.0635681058976092,9.933013871299412
1520530308.4176545,0.0695811422897817,-0.085542339178775,-0.028135199763352,-0.1658470454524645,0.0287969673371489,9.98002515267632
1520530308.4226704,0.06228856007952,-0.084943486127135,-0.0351514119112966,-0.2211651602483462,-0.0131686391239301,9.922497314434713
1520530308.4276855,0.0547482936837251,-0.0790881551426798,-0.046455876134817,-0.2728755719053661,-0.0875113179970505,9.866128077137784
1520530308.4327016,0.0477086020145165,-0.0743967084941772,-0.0583112579379208,-0.2259754311001622,-0.0899132515824954,9.880781790020508
1520530308.4377184,0.0378996560724141,-0.0717387522370052,-0.0728825263412195,-0.2019240768410832,-0.1150970736734576,9.91311227573436
1520530308.4427335,0.0275847604924862,-0.0746311390997699,-0.0823547278967344,-0.1718598840172343,-0.1150994151725725,9.91514393723214
1520530308.4477494,0.0175164631847641,-0.0783859261917866,-0.096162799765869,-0.129770014063846,-0.1139035528479206,9.899625219513124
1520530308.4527657,0.0056863885838686,-0.0847667769425023,-0.1089054287562858,-0.0828698732586419,-0.101915801352411,9.894508453103125
1520530308.4577825,-0.0038758807063648,-0.0864838607255889,-0.1218872347870923,-0.1225546077861223,-0.058743655330716,9.906474063294397
1520530308.4627974,-0.0131862787856026,-0.0876173485674801,-0.1351356072664521,-0.1526188006099711,-0.0695335776423169,9.898642206078764
1520530308.4678144,-0.025253789616059,-0.0823363608024117,-0.1502237591843252,-0.129770014063846,-0.0515482508304512,9.817052193122583
1520530308.4728296,-0.0358128017920585,-0.0758863304706504,-0.1663880026841927,-0.1153392015083987,-0.073133902371458,9.797176333330237
1520530308.4778464,-0.044605202819983,-0.0653627834476071,-0.1800894769895142,-0.1249597432120301,-0.0395572212361809,9.744940754342796
1520530308.4828615,-0.055399373494308,-0.0493073602056714,-0.1923922494082767,-0.183885561146774,-0.035955210627677,9.65718785356928
1520530308.4878774,-0.0641760301533952,-0.0294697063442049,-0.2022349424410741,-0.1826829934338198,-0.0383535851344674,9.556071963174292
1520530308.4928937,-0.0706890998528521,-0.0061250824514672,-0.2155722556063143,-0.2019240768410832,-0.0563391929262269,9.494683154592243
1520530308.4979095,-0.0799621010911006,0.0204236882305338,-0.2288799808771647,-0.2259754311001622,-0.1114977792039271,9.377594505950125
1520530308.5029254,-0.0857039421546212,0.0557117309535661,-0.2407748182350196,-0.2355959728037937,-0.1150944511944489,9.266125834814249
1520530308.5079415,-0.093965279387687,0.0875080022422093,-0.2548560325510863,-0.2271779988131161,-0.1007054217332467,9.22303054104216
1520530308.5129564,-0.0987054456702216,0.1198811366523438,-0.2662338758633199,-0.1826829934338198,-0.1258908360436069,9.245864889163013
1520530308.5179744,-0.105453811098154,0.150782720591392,-0.2724787287938076,-0.129770014063846,-0.1234966762352235,9.223266792871597
1520530308.5229895,-0.1119544452864595,0.1775984637242713,-0.2763202585787896,-0.1021109566659053,-0.0815289155949586,9.24038880901334
1520530308.5280054,-0.1169525673032861,0.2000418443878038,-0.2793862972953397,-0.081667305545688,-0.079132226967531,9.245998204146687
1520530308.5330224,-0.1247140120283842,0.2218955455372496,-0.2802872810593146,-0.0804647378327341,-0.0407598270782837,9.320326293304294
1520530308.5380375,-0.1307179096077339,0.2408280778608124,-0.2782377578843711,-0.0888827118234119,-0.008382380026384,9.38661886193003
1520530308.5430546,-0.1389938857671332,0.2498424521215926,-0.2724719765578944,-0.0804647378327341,0.0383834408669656,9.451571383740577
1520530308.5480697,-0.1427462673931268,0.2573943916349805,-0.2640202527178372,-0.0612236544254709,0.0335853806138806,9.495550250455082
1520530308.5530863,-0.1487613068247495,0.2640705630355468,-0.2553004517283655,-0.1285674463508921,0.014404378797292,9.568277368204534
1520530308.5581024,-0.1580437994842985,0.2716254355444923,-0.2487322812476478,-0.1718598840172343,0.0863561759607897,9.589547181056844
1520530308.5631175,-0.1643146697461729,0.2748041657309344,-0.2397681446627186,-0.1935061028504054,0.1019466873445197,9.697822058404649
1520530308.5681334,-0.1705941649264857,0.270986753538076,-0.2297751785416146,-0.1369854203415699,0.1055397065964224,9.792564216980832
1520530308.5731504,-0.1771313884348841,0.2601658161996972,-0.2160474572020522,-0.0636287898513787,0.143906486887794,9.808082805041908
1520530308.5781674,-0.1804041108009482,0.2446708945874535,-0.1974915465037481,-0.0455902741570695,0.1870741372311884,9.888053065823645
1520530308.5831826,-0.182176214561236,0.2227610050905417,-0.1770935227505743,0.1540359661932864,0.3837176191167765,9.953322604164644
1520530308.5881994,-0.1837020964820674,0.1906236183512081,-0.1459519378704581,0.3260031491457013,0.6631039443970383,10.051320705113357
1520530308.5932145,-0.18296696722759,0.1511719104245796,-0.1035072030046717,0.2322028675352931,0.6391284414060193,10.061554237933352
1520530308.5982304,-0.1787104748740758,0.1184430926421019,-0.0683226104918966,0.2394182738130168,0.618742492248213,9.998748112834209
1520530308.6032465,-0.1706870836013391,0.0883586085082841,-0.0407002961456394,0.2562542217943722,0.7326595212329313,10.07517465579398
1520530308.6082616,-0.1609078975862758,0.0568222615132003,-0.0147156396642369,0.2694824666368656,0.7950137929907901,10.09125510989138
1520530308.6132765,-0.1501195566356024,0.0282001536132122,0.0112893807771762,0.2105566487021219,0.8213994716441384,10.132477970590442
1520530308.6182945,-0.1373177827905731,0.0042519122602609,0.0332680483588536,0.1600488047580559,0.8261999670563029,10.136451337466005
1520530308.6233106,-0.1265238355903232,-0.0132662610666816,0.0477240725182781,0.0770716325642335,0.8034227615490155,10.123335476354532
1520530308.6283264,-0.113212846371745,-0.0255283303119861,0.0584278024379447,0.0145381114906282,0.7830422446691556,10.060046100573892
1520530308.6333425,-0.1019074452565426,-0.0316604572313884,0.0648532166008635,-0.011918378194359,0.7434726712157519,10.127746549355216
1520530308.6383584,-0.0875919036189186,-0.0380660332970239,0.0650482513934885,0.0289689240460755,0.7254823804257626,10.071583207722952
1520530308.6433744,-0.0750285930662907,-0.0403972857557576,0.0669009518187544,0.0975152836844506,0.6715157227542015,10.024482881604124
1520530308.6483903,-0.0581893721657904,-0.0389344950290682,0.0671513426820251,0.1396051536378391,0.6307416702594031,9.9392764535057
1520530308.6534064,-0.041855434413021,-0.0400972756833695,0.0684648428076571,0.1227692056564837,0.5755825220219153,9.867441188739567
1520530308.6584225,-0.0292907164326722,-0.0415551029912923,0.0705947583847529,0.1744796173135034,0.52641373728351,9.821662200007928
1520530308.6634395,-0.0132075953031405,-0.0430122803526993,0.0729886857319516,0.1949232684337207,0.4520654388125139,9.830832864715914
1520530308.6684537,0.0036309982970969,-0.0462305812704592,0.0802377005237009,0.1889104298689508,0.4100959922928864,9.78212227079458
1520530308.6734695,0.0204737710585347,-0.0465357653463579,0.0877794920644473,0.1468205599155625,0.328557721599572,9.731477128852838
1520530308.6784866,0.0368135070779073,-0.0468396894712044,0.0947811252599339,0.0878947419808191,0.2710035706140193,9.697242486275131
1520530308.6835024,0.0546645174173471,-0.0424714008222331,0.0982984308340299,0.0205509500553977,0.2158483560950446,9.644493137146412
1520530308.6885183,0.0712623385368994,-0.0337240953687632,0.0986048655533116,-0.0528056804347931,0.1618927502993057,9.620854742816048
1520530308.6935334,0.0903713524219521,-0.0232136580058308,0.0937795995296142,-0.1393905557674777,0.0899510684119842,9.656631985860294
1520530308.6985505,0.1067111982780362,-0.0153223938130861,0.0873161843187077,-0.1959112382763135,0.0096130620616579,9.63866616597455
1520530308.7035666,0.1212984170871987,-0.0036481905407324,0.0825082116551324,-0.2355959728037937,-0.022760638591658,9.69138048293622
1520530308.7085824,0.1363818629060277,0.0065838556275962,0.0722772722004419,-0.2548370562110569,-0.0911101441667581,9.763687341337857
1520530308.7135975,0.1486874334656557,0.0092497475413684,0.0579354780451681,-0.3666758535157743,-0.1306730677626755,9.83105670517123
1520530308.7186134,0.1572164452605201,0.0093033567734642,0.0392519426367582,-0.3642707180898665,-0.1618509060913393,9.937980941667028
1520530308.7236304,0.1624740755337715,0.0026385449033578,0.0262048074826808,-0.3690809889416824,-0.1966256037304541,10.079843235145704
1520530308.7286456,0.1682205349738596,-0.0133467327736986,0.0117328706726478,-0.3029397647292149,-0.1822410699475526,10.140779054544875
1520530308.7336624,0.16968233371388,-0.0377801933311185,-0.0041483307952569,-0.2969269261644451,-0.1354750617342734,10.28245648744674
1520530308.7386785,0.1703929567138897,-0.0628083732068341,-0.0157038439295472,-0.301737197016261,-0.099500474392029,10.295251810991369
1520530308.7436934,0.1703543877156476,-0.0855108712483063,-0.0253463509402381,-0.3342065252660178,-0.0479349073662314,10.316436157103084
1520530308.7487104,0.168557914799563,-0.1073399048966916,-0.0349789216321011,-0.3787015306453138,0.0168221409167536,10.342373266864191
1520530308.7537265,0.1675227283493117,-0.1242172915076761,-0.0437634623558113,-0.3366116606919256,0.106754394573958,10.30003870709366
1520530308.7587414,0.1644886615556338,-0.1387920699252276,-0.0422457405666275,-0.3065474678680768,0.1499211083177065,10.24275893071328
1520530308.7637577,0.1614616319005607,-0.1489997225887248,-0.0393419430182936,-0.304142332442169,0.2038822400513565,10.117171353278524
1520530308.7687736,0.1589442840963631,-0.1536694154604381,-0.0369379320874227,-0.2428113790815174,0.2158688676272909,10.044509776846702
1520530308.7737894,0.1579408843053936,-0.1554319566366505,-0.0318090316840716,-0.1249597432120301,0.28660897393212,9.96310575746008
1520530308.7788055,0.1569428868191018,-0.1566270258107011,-0.0209942212961753,-0.0143235136202668,0.3693410464308653,9.88873313874483
1520530308.7838216,0.1541876401086688,-0.1584142944009429,-0.0069340392651843,0.0782742002771874,0.3981132047755004,9.862236618265197
1520530308.7888374,0.15419329328086,-0.1625308277675014,0.0068326782314443,0.16125137247101,0.4592629038319998,9.771884248595176
1520530308.7938526,0.1521959810566118,-0.1649165955291957,0.0268390236318293,0.2550516540814183,0.5683773768853326,9.768540556413766
1520530308.7988694,0.1494446782369107,-0.1696439329108074,0.0506166270621689,0.3187877428679776,0.6726976297441289,9.716684121922812
1520530308.8038864,0.151473282986718,-0.1726305620772513,0.0779157979089269,0.3199903105809315,0.7314554168313949,9.716615119243151
1520530308.8089015,0.1517397654676509,-0.1759005237869662,0.1019694619824598,0.3211928782938855,0.735052744441669,9.774707103879932
1520530308.8139164,0.1527565337244251,-0.1829632880023382,0.1278866470484627,0.2935338208959448,0.7458471624315706,9.842370145469198
1520530308.8189344,0.1507555284769584,-0.187092992341383,0.1462563785615828,0.2406208415259707,0.7146736324612781,9.945184238743728
1520530308.8239503,0.1467414118495293,-0.1906290603730905,0.160305555697073,0.1480231276285166,0.6739100698825142,9.9740167405243
1520530308.8289664,0.1412236892730317,-0.1883256452640377,0.1698027146480619,0.0470074397403847,0.6091643544552452,9.93438807118592
1520530308.8339815,0.1389680646738764,-0.1862977661388797,0.1738806651931894,0.0169432469165358,0.5839847470626898,9.925408102087069
1520530308.8389986,0.1339444207416978,-0.1842585866965275,0.1733644694639805,-0.008310675055497,0.5504107820663859,9.94079452117586
1520530308.8440125,0.1289221450474087,-0.1795896621978612,0.1701628225435454,-0.008310675055497,0.4904537608957423,9.974555162810695
1520530308.8490295,0.1226428067579011,-0.1740412489464822,0.164805811328186,-0.0275517584627602,0.4412905020952481,9.9410882119504
1520530308.8540454,0.1176193902319288,-0.1690758409030484,0.159712566221752,0.0181458146294897,0.3897239048098401,9.932558693714402
1520530308.8590624,0.1108355215287098,-0.163813910072571,0.1524604440963169,0.0433997366015228,0.3225700742394628,9.874271172816476
1520530308.8640776,0.1017939190508196,-0.1571024985851146,0.1476585509699828,-0.0191337844720824,0.3069861190532544,9.80632854386196
1520530308.8690934,0.0937606403948567,-0.1463032971516451,0.1399099092899841,-0.0371723001663919,0.2290433964308867,9.756607936728162
1520530308.8741105,0.0852294685697306,-0.1331783154283906,0.1340738070103134,-0.0239440553238983,0.212254400243496,9.720469089276175
1520530308.8791263,0.0756984253532651,-0.1159736157141344,0.1280001489221609,-0.0852750086845499,0.1798823854695428,9.708314035817246
1520530308.8841414,0.0671686648879909,-0.1005117303239942,0.120017464157757,-0.1189469046472606,0.1319193910120367,9.697067111424978
1520530308.8891585,0.058129618533767,-0.0902964201983451,0.1125367890961256,-0.1069212275177211,0.0947451012865916,9.746958500408878
1520530308.8941734,0.0478340780341007,-0.0800816023504043,0.1050584476508508,-0.1538213683229252,0.0923504731783852,9.68466156276017
1520530308.8991904,0.0360393184921171,-0.065505348499134,0.1008628035756626,-0.1393905557674777,0.0683665407905526,9.606680843935363
1520530308.9042065,0.0239889515939569,-0.0529637857769809,0.0947582433552699,-0.1634419100265567,0.0479830267918257,9.637150566640832
1520530308.9092214,0.0159614359468967,-0.0380859293924788,0.0873112707655066,-0.1983163737022213,0.0479857429307989,9.649111452819389
1520530308.9142375,0.0049277472609333,-0.0170938215566652,0.0812693131260067,-0.1646444777395106,0.0743642097668734,9.642947266004862
1520530308.9192543,-0.0036032442120802,-0.0022132483589752,0.0727410903991812,-0.1201494723602145,0.0635684805374676,9.656470430420963
1520530308.9242704,-0.0131407521852434,0.0112078230868801,0.0650152568265967,-0.081667305545688,0.0719594663824907,9.71884345676841
1520530308.9292865,-0.023687505270073,0.0208368597004222,0.0586151195175789,-0.0179312167591285,0.0863441874853215,9.736803359974328
1520530308.9343014,-0.0314763105578702,0.0243413483721618,0.0545980765241865,0.040994601175615,0.1055258449216623,9.814074747714123
1520530308.9393184,-0.0377625605522258,0.0231806331851262,0.0518953933057188,0.0806793357030952,0.1426961072686297,9.8368951104197
1520530308.9443324,-0.0443070171483869,0.0167741696202092,0.0494237071708511,0.1239717733694376,0.1786669482122904,9.828303640531333
1520530308.9493494,-0.0513507704093011,0.0132835397103411,0.0461635476479183,0.1263769087953454,0.1918573055499028,9.805024488602353
1520530308.9543643,-0.0543755457944463,0.0086296754110362,0.0426164823155047,0.1804924558782732,0.219433320589992,9.768444403679633
1520530308.9593816,-0.0576597156671737,-0.0021440908480289,0.0392937448107624,0.1901129975819047,0.2434153797785327,9.770651664351668
1520530308.9643974,-0.0609356605155194,-0.007676577771161,0.0373637523210987,0.1937207007207666,0.2446142392220518,9.7926961149733
1520530308.9694154,-0.0609394437147941,-0.0102983100857292,0.0370731986574112,0.1889104298689508,0.2697965627535805,9.712530446233645
1520530308.9744294,-0.0596875246924776,-0.0135023191771748,0.0367758652067479,0.1792898881653193,0.3069706651590962,9.70793926135144
1520530308.9794457,-0.0564264421130617,-0.0158233743006623,0.0335054623709292,0.1311871796471613,0.3081735519810929,9.677028407505322
1520530308.9844625,-0.0539145436676353,-0.0128917905577571,0.0273004703855836,0.0902998774067269,0.2805965066813931,9.686750425860312
1520530308.9894786,-0.0486416159736969,-0.0131679957594541,0.0224186199853541,0.1083383931010362,0.3069761910970073,9.727224162948094
1520530308.9944935,-0.0443711981065583,-0.0108192203134107,0.0164764606623912,0.0878947419808191,0.2781984131544965,9.723964781186677
1520530308.9995096,-0.0363355240183865,-0.0125527220027493,0.0121194526714317,0.0686536585735557,0.2470222607051954,9.77299251098719
1520530309.0045254,-0.0325754936820494,-0.0169103581819325,0.0077503712082984,0.1023255545362664,0.2374265148388838,9.79126842738876
1520530309.0095425,-0.0280637191559253,-0.0215532560732411,0.0012132993228316,0.1191615025176218,0.2769968375720042,9.775958096998703
1520530309.0145574,-0.020787441900015,-0.0276592779007337,-0.0026345629861552,0.1732770496005495,0.2302261463604955,9.775476973690258
1520530309.0195744,-0.0147720535605603,-0.0352147019006533,-0.009467211960247,0.1696693464616878,0.2494126741149952,9.780141955248418
1520530309.0245905,-0.0087533681598129,-0.0413175738505153,-0.0146654701323834,0.2105566487021219,0.2542060513698504,9.76346929061386
1520530309.0296066,-0.0050007278020436,-0.0506265617004742,-0.0198839817334835,0.2081515132762141,0.2865830301219271,9.75183968902478
1520530309.0346224,-0.0007433296243567,-0.0567228385284499,-0.027784431801733,0.1828975913041812,0.2673987502065777,9.817184266073998
1520530309.0396383,0.0030118198029851,-0.0636985648668623,-0.03379679640806,0.2225823258316615,0.2673956594277461,9.83074372666256
1520530309.0446534,0.0055120158106244,-0.069216403984383,-0.040336803763285,0.2622670603591419,0.2757865516128046,9.804782107432922
1520530309.0496695,0.0085214977072136,-0.0694876678374127,-0.0473788208212825,0.2622670603591419,0.299769360081062,9.733867939440564
1520530309.0546863,0.0110348467023235,-0.0659755003331251,-0.0527677289483053,0.282710711479359,0.3465342443747658,9.673191863631184
1520530309.0597024,0.0107935841515254,-0.0566425527424806,-0.0559426742459419,0.3115723365902539,0.4016924560126076,9.613587811006296
1520530309.0647175,0.0120703625312305,-0.0409036538356171,-0.057177690735087,0.3284082845716092,0.4304705149350122,9.55528867836338
1520530309.0697334,0.0140989634803856,-0.0289626564518855,-0.0546553649604533,0.3428390971270566,0.4796341483753648,9.514425236379358
1520530309.0747504,0.016887792375485,-0.0138226897809172,-0.0496750723541171,0.384928967080445,0.5275964872131187,9.558130256094776
1520530309.0797665,0.0164092464223212,-0.0013166618125761,-0.0409210775704228,0.4137905921913397,0.5515770478422259,9.617095289620728
1520530309.0847824,0.0169341707755279,0.0065123104888214,-0.0265230552308412,0.3801186962286291,0.5827573213299693,9.670851250274252
1520530309.0897975,0.0182062602632645,0.009388041192865,-0.0121642255113367,0.3320159877104711,0.5659731018007728,9.77360449125208
1520530309.0948124,0.0169579754136796,0.0087749141867907,-0.0010739563336487,0.3404339617011487,0.5647733057576078,9.871143817350752
1520530309.0998304,0.0144541568982229,0.0061092198838051,0.0146023650935496,0.3488519356918264,0.5311967182822952,9.971039003517603
1520530309.1048455,0.0101762470800671,-0.0064591385184558,0.0283125474118126,0.3067620657384381,0.5096154687596244,10.07141410866186
1520530309.1098626,0.0076456482480805,-0.0239635907813446,0.0357591146111851,0.3067620657384381,0.4880309411381927,10.177190256602294
1520530309.1148765,0.0033525272531629,-0.0435062386308719,0.0423817495885859,0.2418234092389248,0.4880359987762808,10.263820982261528
1520530309.1198936,-0.0029548538176623,-0.065085723660444,0.0476398272754841,0.2189746226927997,0.4976309017029111,10.379086275087325
1520530309.1249094,-0.0092679939652593,-0.0892803851249739,0.0501724382355837,0.1841001590171351,0.4964344774184714,10.373616171291838
1520530309.1299264,-0.0143240205314131,-0.1117204196994957,0.0505516869239743,0.1420102890637467,0.4880437725533422,10.339169715014934
1520530309.1349423,-0.0213867407749254,-0.1309538268249258,0.0501474856492373,0.0963127159714967,0.4592679614700879,10.324534699896274
1520530309.1399584,-0.0279442641146318,-0.1469759797905082,0.0476024376991532,0.0734639294253716,0.4736594260903697,10.307310904584092
1520530309.1449726,-0.0324856338127276,-0.1589186901607245,0.045355325053134,0.1143512316658059,0.477253662921812,10.208127188539224
1520530309.1499894,-0.0352586752170271,-0.165037391382698,0.0447726824258148,0.1456179922026086,0.4652598235286039,10.111376602264452
1520530309.1550064,-0.0400409585580891,-0.1685264067616232,0.0412377764975388,0.1420102890637467,0.4412772960402402,9.9824371253004
1520530309.1600215,-0.0400400725260505,-0.165602363453745,0.0374723648080174,0.158846237045102,0.328556784999926,9.849898761618924
1520530309.1650364,-0.0422951991908308,-0.1580148685158523,0.0329350853051876,0.1564411016191944,0.2614051086087344,9.765151146071762
1520530309.1700544,-0.0430428308026874,-0.1469134146026353,0.0221991268807166,0.089097309693773,0.2254361408643656,9.650789457941432
1520530309.1750703,-0.0432842971669054,-0.1317258245166242,0.0090584451409261,0.0157406792035821,0.0887398458531386,9.59236742939272
1520530309.1800864,-0.0437755726206968,-0.1177140690302756,-0.000303019674214,0.0193483823424438,0.058761054287923,9.527281486268414
1520530309.1851025,-0.0425089441566457,-0.1045757779370139,-0.0096744208081823,0.013335543777674,0.0107959056512311,9.549467520250696
1520530309.1901174,-0.04024701549225,-0.097258227687833,-0.0215270636045387,-0.0323620293145758,-0.0683438032153636,9.573232367869757
1520530309.1951334,-0.0364796265029146,-0.0919812352585879,-0.0328569765458877,-0.03356459702753,-0.0791359733661148,9.589524612338495
1520530309.2001495,-0.0342158552590407,-0.0852551952368065,-0.0414675147620485,-0.0239440553238983,-0.0887298460331346,9.581305318921553
1520530309.2051675,-0.0271830830274633,-0.0831916222896228,-0.0493108523976141,0.0590331168699242,-0.1019268532282332,9.53170048668268
1520530309.2101824,-0.0229135472602322,-0.0823034116353828,-0.0539113976676188,0.0806793357030952,-0.0599586242881454,9.50239526993779
1520530309.2151976,-0.0193995820040254,-0.0834588301941571,-0.0571733748854704,0.1552385339062403,-0.0263884993503899,9.516744686345218
1520530309.2202144,-0.0168979825007961,-0.0895667226769417,-0.0610123694523022,0.1985309715725824,-0.020396168992051,9.551181776244198
1520530309.2252305,-0.0071124178414814,-0.1003426535585174,-0.0616539176081409,0.2526465186555102,0.0239678119758184,9.565719654557626
1520530309.2302454,-0.0025994711581047,-0.1099653119322462,-0.0584891296914263,0.2983440917477604,0.086319554914633,9.605889095170117
1520530309.2352624,0.0049291869080904,-0.121928791523835,-0.0512895386979258,0.3500545034047803,0.1522682508238634,9.59718645640552
1520530309.2402775,0.0091921559461744,-0.1300924404234376,-0.0489248063190956,0.3488519356918264,0.2110262252310586,9.604113727564028
1520530309.2452934,0.0117054421586664,-0.1336048241100949,-0.0427335949697955,0.3428390971270566,0.2422043445396163,9.59833113025457
1520530309.2503097,0.0147288884957537,-0.1333370247726073,-0.0335384121030999,0.3272057168586553,0.2913703194790837,9.585651769582464
1520530309.2553265,0.0185075525039022,-0.1316098221388267,-0.025145151667374,0.3175851751550236,0.3321418431548381,9.598489235995796
1520530309.2603424,0.0205338090070731,-0.126100408856505,-0.0148259027884155,0.2947363886088987,0.3489315886219456,9.580100958050892
1520530309.2653575,0.0215543919201703,-0.1188336126287112,-0.0080085451512303,0.2682798989239117,0.3417388066006895,9.533879727159004
1520530309.2703743,0.0208140365180389,-0.1124394738783844,-0.0020062273947783,0.263469628072096,0.3657219897088052,9.54320031223347
1520530309.2753904,0.0223330810500754,-0.1083784389707968,0.0050562887533599,0.2430259769518787,0.3909055308198736,9.57242834092395
1520530309.2804055,0.0200870849708917,-0.1016993338749697,0.0132279971019593,0.3007492271736685,0.3693165075201414,9.552131099100258
1520530309.2854226,0.020861202909802,-0.0929851830701346,0.0235740335356798,0.261064492646188,0.3681204578755602,9.588544997882368
1520530309.2904384,0.0228860951072146,-0.0886420363280522,0.0341549359693011,0.2201771904057534,0.3789159061250723,9.587770301793396
1520530309.2954535,0.0211408462424676,-0.0842981811258917,0.0439312015642885,0.1636565078969178,0.3633314826390409,9.616227095756935
1520530309.3004694,0.0181368607587434,-0.0811181710174077,0.0528892707466905,0.20694894556326,0.3861117789251601,9.654134246769075
1520530309.3054855,0.0181502685458586,-0.0753086912482451,0.059697379850413,0.2153669195539378,0.3717214382244534,9.643607047857117
1520530309.3105016,0.0189092144978387,-0.0753251497961796,0.0659185352863274,0.2574567895073261,0.3633241771618025,9.625773396943655
1520530309.3155174,0.0194161598729353,-0.0750466801170239,0.0707896510513166,0.2766978729145894,0.3657209594491947,9.66393452785157
1520530309.3205345,0.0219330999188142,-0.0750588073208275,0.0756548099448255,0.2694824666368656,0.3933017511474783,9.688382886425986
1520530309.3255494,0.0267126977703221,-0.0741951664118096,0.0802518916889202,0.2899261177570829,0.3609233674959327,9.63708113864084
1520530309.3305664,0.0304876766195143,-0.0712849433232301,0.0821609429642548,0.333218555423425,0.3717122595479231,9.613406353471865
1520530309.3355815,0.0327616330367426,-0.0651780939094248,0.0870732533725365,0.3175851751550236,0.3105573155334064,9.553186669887744
1520530309.3405986,0.0390499059626889,-0.0628532974753533,0.0903259207240449,0.3079646334513921,0.2805795542278014,9.526580232873355
1520530309.3456137,0.044834789306607,-0.061111467006951,0.0935750753514769,0.3344211231363789,0.25539554481691,9.550752300794825
1520530309.3506296,0.0506182652228042,-0.0602430616893595,0.0965470148270788,0.3957520764970305,0.2326071001138711,9.517637529644691
1520530309.3556464,0.0571601696274301,-0.0558770182465605,0.0992736852606806,0.3187877428679776,0.2086302858833478,9.543977207033786
1520530309.3606625,0.060680552586241,-0.0544194456635803,0.0995488124573313,0.3656878836731817,0.1822455438296454,9.534249283662904
1520530309.3656764,0.0662173989046629,-0.0480053631790841,0.0990463606303707,0.3344211231363789,0.1954385236462665,9.50548715354276
1520530309.3706944,0.0715025543642017,-0.0404192851613478,0.0961183548048087,0.3055594980254842,0.2422072479985187,9.475506727856558
1520530309.3757095,0.0785504515286157,-0.0307957399880406,0.0942848270971195,0.3296108522845632,0.2565950598801813,9.514771489100486
1520530309.3807254,0.086107105322035,-0.0168019584253246,0.0927542581184327,0.3620801805343199,0.2685839352952659,9.560929517353246
1520530309.3857424,0.0876354451947353,-0.0013565308834158,0.0923281895084104,0.3644853159602277,0.2517957820475565,9.535355310997067
1520530309.3907585,0.089660137510859,0.0103047368701078,0.0905195578633147,0.3873341025063528,0.2889673556340282,9.524637369820256
1520530309.3957725,0.0941997116835704,0.0240095945943698,0.087639636999068,0.4065751859136161,0.3201435080833293,9.52674397400538
1520530309.4007905,0.0984836314460115,0.0345091240628683,0.0847357289196872,0.382523831654537,0.3345350663635757,9.549044778193077
1520530309.4058063,0.1027644227028792,0.0409212574075205,0.0847767025008856,0.3861315347933989,0.3381322066539206,9.574573321998868
1520530309.4108214,0.1040259781094294,0.0452954313188935,0.0837255315805679,0.4017649150618003,0.3669103592362897,9.615068130521
1520530309.4158366,0.1077995495309006,0.0473322292566621,0.0853573677040726,0.3945495087840766,0.378902325430206,9.709260327758813
1520530309.4208534,0.1103153095552647,0.0493729055031291,0.0853682620685265,0.40777775362657,0.40168496321544,9.700974347012846
1520530309.4258685,0.1135829470674346,0.05171327438526,0.0824039744935625,0.3704981545249975,0.4532509048810959,9.687341194723697
1520530309.4308856,0.1158496154785446,0.0581370034137314,0.0778494016306106,0.3548647742565962,0.4616461054245257,9.714214486029528
1520530309.4359024,0.1168543325211787,0.059895174003537,0.0743437766026668,0.3452442325529645,0.466443416397894,9.748005623796292
1520530309.4409184,0.118362223536028,0.0637005175061542,0.0681473207663352,0.3067620657384381,0.4508575880123937,9.754206106783275
1520530309.4459324,0.1186084337105702,0.0654736897817586,0.0589616320942795,0.282710711479359,0.474842269679943,9.781146132073848
1520530309.4509504,0.1148295972145713,0.0649178527056921,0.0484128968325821,0.2863184146182209,0.4856342525107651,9.867099145463536
1520530309.4559665,0.1143235378715132,0.0675634263344145,0.0397763693780716,0.357269909682504,0.4532519351407064,9.831575800667554
1520530309.4609826,0.1140739209304456,0.0725336187574115,0.0335920729458775,0.3861315347933989,0.4628428106888591,9.8115290773776
1520530309.4659977,0.1098081801588823,0.0786575759659639,0.0312117789698803,0.4125880244783858,0.4688364522867024,9.806617143623098
1520530309.4710135,0.1078028547194133,0.0844939484713697,0.0277428778155266,0.3933469410711226,0.4904224784675676,9.802134800602548
1520530309.4760306,0.1030322698840072,0.0879908774367958,0.026966784893693,0.4498676235799582,0.4352576169722396,9.843475634907886
1520530309.4810464,0.0962532232392967,0.090309825751632,0.0305142677512114,0.4919574935333466,0.3932844240540282,9.840782596898269
1520530309.4860623,0.0894689389134968,0.087962979474443,0.0353789107232825,0.4655010038483596,0.3812950803391206,9.863132536662304
1520530309.4910784,0.0811740467577242,0.0838686921623821,0.0396919237313216,0.4186008630431554,0.3729047501138497,9.903110113681128
1520530309.4960935,0.0763921907041573,0.0759877843730972,0.0439695025045376,0.4017649150618003,0.3201438827231878,9.950973337521065
1520530309.5011106,0.0648195032562986,0.0640255633331543,0.0479580137158437,0.3704981545249975,0.275778122215991,10.024536003656191
1520530309.5061264,0.0532473881903471,0.0526468397788649,0.0516804252018678,0.3091672011643459,0.2541983712527537,10.061180472221215
1520530309.5111425,0.0431813528853361,0.0409816930169396,0.053774537887547,0.2875209823311748,0.2601957592491807,10.042791013273137
1520530309.5161574,0.0290891300781008,0.0272840204481107,0.0526140057975854,0.2598619249332341,0.2506047900410634,10.04190744033072
1520530309.5211744,0.0185156162059177,0.0130005866158729,0.0530657687866135,0.2502413832296024,0.2721900669422119,10.076844351302208
1520530309.5261903,0.0091990826171588,-0.0001131746741459,0.0521713610210173,0.2730901697757275,0.2470063385112143,10.004593586192769
1520530309.5312054,-0.0008729313065678,-0.0143927694399614,0.0512694610839966,0.2490388155166485,0.2889781265299567,9.95830100227879
1520530309.5362225,-0.0109451608401077,-0.0272081572586343,0.0476732176145116,0.2598619249332341,0.2601979134283664,9.909413674835744
1520530309.5412383,-0.0179985544173866,-0.0397404486873957,0.0475906931977963,0.2322028675352931,0.2470095229500105,9.93991149667499
1520530309.5462534,-0.0258079105354843,-0.0531442753403895,0.0464207161113613,0.261064492646188,0.2685918027322919,9.92217736790098
1520530309.5512705,-0.0298446204539809,-0.0656790274579897,0.0476853204948963,0.2538490863684641,0.2530035391877122,9.887398481023206
1520530309.5562866,-0.0338782489209978,-0.0752970205783898,0.0478899721479223,0.261064492646188,0.2709900835791177,9.83966280847292
1520530309.5613024,-0.0343869584959095,-0.0784966198411525,0.0457020844888496,0.2466336800907407,0.27818605003917,9.814229086121715
1520530309.5663185,-0.0386618024596309,-0.0776110282442619,0.0408468619141686,0.2346080029612012,0.2793861270622289,9.7515891938189
1520530309.5713344,-0.0381611296927262,-0.0749701598108474,0.0341022888378815,0.2682798989239117,0.2913749088173489,9.73381759953318
1520530309.5763505,-0.0391667993506689,-0.0717492983493006,0.0281765999595451,0.2971415240348065,0.2961692226718501,9.750964160135238
1520530309.5813663,-0.0379111323867782,-0.0691117767046,0.0227833561929501,0.3079646334513921,0.3441339966686836,9.74151488942366
1520530309.5863824,-0.0351411606375653,-0.0615193989316025,0.017154558641089,0.3127749043032078,0.3729129921907341,9.765845028094564
1520530309.5913985,-0.0348864196527721,-0.0550913585299899,0.010709898292999,0.3296108522845632,0.3944962085726614,9.762173677335444
1520530309.5964134,-0.0333751022107422,-0.0507119871456005,0.0077644393781014,0.3548647742565962,0.4196761906050752,9.78747048201907
1520530309.6014304,-0.031105313158321,-0.0431278190254322,0.0051125801276964,0.333218555423425,0.3968942084395934,9.806297693747991
1520530309.6064465,-0.0328576265551112,-0.0370043341235986,0.0032687107107884,0.3981572119229384,0.4064822741888082,9.821926281346046
1520530309.6114614,-0.0290764024911655,-0.0303097543355506,0.0065593915746539,0.457083029857682,0.4328587741656262,9.806219136712816
1520530309.6164775,-0.0242936330121216,-0.0256515586921149,0.0087504603646621,0.4871472226815307,0.4652332240986589,9.769868475561626
1520530309.6214943,-0.0232788562298897,-0.0221705760259252,0.0147272802051189,0.5208191186442414,0.4784211462771918,9.762555007524629
1520530309.6265094,-0.0192522766978708,-0.0213101442078036,0.0204079457026324,0.5232242540701493,0.5048020482723458,9.731127985184369
1520530309.6315265,-0.0147185714386426,-0.0184156512360908,0.0282676065179803,0.6013911554121562,0.5251813475726659,9.717563694253004
1520530309.6365414,-0.0074133184467612,-0.0096901994143583,0.0353549573958317,0.5520858791810441,0.5587611194867748,9.657579374448098
1520530309.6415584,-0.000862365768333,-0.0041833845186931,0.0472890806313137,0.5184139832183335,0.607928499325711,9.629967718217536
1520530309.6465735,0.0066947936922444,0.0019058648226566,0.0594963290402309,0.4931600612463005,0.6355106959234635,9.62437590982865
1520530309.6515906,0.0145051455476133,0.0100378180348696,0.0706364887394389,0.4859446549685768,0.6199224323788839,9.666298523929342
1520530309.6566064,0.0220638967201554,0.0202195625175405,0.0780050342164681,0.4546778944317741,0.5959420590697059,9.680571969632048
1520530309.6616223,0.0303725808285757,0.0260242785778328,0.0877737463071507,0.4005623473488463,0.5935479929212869,9.65437172490269
1520530309.6666384,0.0374260057314241,0.0338732930689415,0.0956665323400483,0.3729032899509054,0.5563767939746735,9.7255679719246
1520530309.6716535,0.0429661883009703,0.0399836076979921,0.099761137658099,0.3187877428679776,0.5395930427453002,9.743543229526566
1520530309.6766694,0.0484994278400991,0.0440680708262808,0.0986998093568593,0.2574567895073261,0.5300046960161916,9.77552742888222
1520530309.6816854,0.0530240025137307,0.0478709536400592,0.0938504823207779,0.21296178412803,0.4844408253451925,9.759734935502411
1520530309.6867015,0.0575464248898837,0.0513882793750871,0.0868345650321772,0.2009361069984905,0.4304804428912592,9.788958205188386
1520530309.6917186,0.0605601721915984,0.0534444495850614,0.0811630621361626,0.2081515132762141,0.4280816000846459,9.821430344246464
1520530309.6967323,0.0628207326181047,0.0581322547779282,0.0719958705310322,0.1708719141746417,0.4244870822733098,9.84271530018937
1520530309.7017496,0.0635689720010478,0.0607856049950372,0.0606515505011528,0.1468205599155625,0.3993070065809314,9.88364899583981
1520530309.7067654,0.0633188689219983,0.0645866171535236,0.0558110912072265,0.1420102890637467,0.4184936279953957,9.906919985721904
1520530309.7117815,0.0648250427911262,0.06664146819918,0.0504129345467411,0.1792898881653193,0.4256855670769705,9.88098294594437
1520530309.7167983,0.0610520045617305,0.0669444876525682,0.0455523323548983,0.2009361069984905,0.4364761450083236,9.924923201135776
1520530309.7218144,0.0577838927079719,0.0678253740541508,0.0425890641584407,0.2045438101373522,0.4148913364069981,9.92607127802721
1520530309.7268314,0.052251844986751,0.0660785430238155,0.0412332640790461,0.2153669195539378,0.4208861955843812,9.942230101182194
1520530309.7318466,0.0472234024573715,0.0634504710120069,0.0425753202561923,0.2225823258316615,0.4376735995523738,9.935170636368824
1520530309.7368624,0.0431997592824202,0.060531408295072,0.0439132864549438,0.1913155652948588,0.4376760347114532,9.929664248064812
1520530309.7418785,0.0391749674115236,0.0549818720907553,0.0482072497408224,0.2081515132762141,0.4448695660124261,9.92600692937669
1520530309.7468925,0.0326339764323747,0.0473931165021071,0.0519492268704448,0.2213797581187075,0.422084867707971,9.91776538352221
1520530309.7519095,0.0286077340117946,0.041262996536408,0.0554271062980006,0.2273925966834773,0.4436689270295798,9.887470067323887
1520530309.7569263,0.0228263594068513,0.0380460326548461,0.0589304836415515,0.2490388155166485,0.4568577858077586,9.887246513576468
1520530309.7619414,0.01553894816293,0.0348226505914916,0.0646010284919402,0.2538490863684641,0.4364720239698814,9.860490261170968
1520530309.7669585,0.0122670844354661,0.0283985277408534,0.0691574682479774,0.2454311123777866,0.423282134932092,9.815261445083152
1520530309.7719734,0.0072365248663085,0.0222651002287164,0.0737193981522234,0.2394182738130168,0.4340748670426308,9.83971446935064
1520530309.7769904,0.0039643553529753,0.016427388588003,0.0769275545993736,0.2261900289705234,0.4400715994193057,9.844485954091956
1520530309.7820065,0.0009477971279498,0.0140878465924816,0.0796208295551651,0.1804924558782732,0.4005035245253356,9.793835000445752
1520530309.7870214,-0.0043294351609456,0.0137929376366778,0.0801694994503557,0.1744796173135034,0.3993048524017457,9.788083975296038
1520530309.7920384,-0.007347745789393,0.0129227016057736,0.0782746096023742,0.1576436693321481,0.4328820954968104,9.770782945273728
1520530309.7970524,-0.0076029101295504,0.0123500321305954,0.0744829876124091,0.1227692056564837,0.4256899690953064,9.747886528861208
1520530309.8020704,-0.0103723368902945,0.0114879072969788,0.0696116261862427,0.1251743410823915,0.4113000966944228,9.725796415689183
1520530309.8070865,-0.01338909892874,0.0150030077968241,0.0623391646998803,0.1023255545362664,0.3909164890357313,9.68652579608508
1520530309.8121014,-0.0146487058512316,0.0167690334595681,0.0555911894305636,0.0590331168699242,0.4065086862988241,9.68693197670618
1520530309.8171194,-0.0156526152414903,0.0214475459886472,0.049406070082874,0.0373868980367531,0.4005146700611224,9.691797090234976
1520530309.8221345,-0.0169027190777671,0.0302068003064206,0.0427114488609874,0.0614382522958321,0.3645385841594444,9.664868758336905
1520530309.8271506,-0.0196559976434862,0.0418771238706695,0.0368534965195283,0.0770716325642335,0.4017107197057036,9.671653206811936
1520530309.8321674,-0.0196432719435108,0.0552990229028376,0.0301921110462385,0.1035281222492203,0.416098344267437,9.658598080003152
1520530309.8371823,-0.0208828259700769,0.0684137480775804,0.0292122999179217,0.1167563670917137,0.392114505539569,9.641060551854167
1520530309.8421984,-0.023381379279527,0.080658197979143,0.0266048777746252,0.1275794765082993,0.4112999093744936,9.647909360643652
1520530309.8472135,-0.0223606983261114,0.091729746976304,0.0272285799151068,0.1889104298689508,0.4100959922928864,9.63685427651719
1520530309.8522294,-0.0243666000796186,0.0955191434799815,0.0264495761225983,0.1756821850264573,0.3873133545076524,9.669545280301758
1520530309.8572464,-0.0258698649851172,0.0975524169892392,0.0286323052266032,0.1901129975819047,0.3741216859305357,9.73798417565532
1520530309.8622606,-0.0281283044397144,0.0978334458127755,0.0321558254680707,0.2033412424243985,0.4136922896435498,9.792437597687686
1520530309.8672786,-0.030897123560851,0.0943350200432345,0.0324048282962414,0.2105566487021219,0.3957046213325692,9.801682059071627
1520530309.8722937,-0.0309071088529166,0.0876360896397692,0.0312715137505159,0.2370131383871088,0.4028974033538254,9.797931099932097
1520530309.8773105,-0.0324132396000819,0.0852883972046843,0.0372085391174943,0.20694894556326,0.414891149087069,9.878399965791372
1520530309.8823264,-0.0339272425316659,0.0782836513503877,0.0412161738482105,0.2502413832296024,0.4076929347878663,9.861715584436457
1520530309.8873415,-0.0351891939001417,0.0736180929117219,0.0422651216832187,0.2346080029612012,0.4088932927908189,9.83513726988371
1520530309.8923583,-0.0379555510057993,0.0712822915270812,0.0436052004362327,0.1660616433228259,0.46285995046238,9.8008875192072
1520530309.8973734,-0.0382078652328142,0.0692366739319469,0.0457544727295467,0.164859075609872,0.4472712186179773,9.769536538909954
1520530309.9023905,-0.039463257736405,0.0706960180149741,0.0446857381888464,0.1889104298689508,0.4292822390674923,9.713537068067655
1520530309.9074066,-0.0402164054217818,0.0715713330923633,0.0441527158227866,0.158846237045102,0.4053017720983498,9.68596162636205
1520530309.9124217,-0.0389651881472602,0.0686623506835497,0.0425048759779267,0.1432128567767008,0.4268875172993212,9.682606312126438
1520530309.9174385,-0.0402254184378836,0.0672107632179193,0.0403317270005256,0.164859075609872,0.4017038825282882,9.737040943083308
1520530309.9224534,-0.039728975818404,0.0643043991667518,0.0376031037418747,0.1335923150730691,0.3813209304893489,9.717608706095907
1520530309.9274704,-0.0377272061720034,0.0587725229478594,0.0362044018553158,0.1384025859248849,0.3573377473812331,9.71526098474676
1520530309.9324863,-0.0387410577323651,0.0564592636840447,0.0294248366683936,0.1119460962398979,0.3597380887472799,9.745731900119337
1520530309.9375024,-0.0379959978412201,0.0523911021345864,0.0253341248657269,0.1275794765082993,0.3405506243931342,9.750247019630663
1520530309.9425185,-0.0347368950714322,0.0486131243746344,0.0220526066033603,0.0854896065549111,0.3477487450323723,9.72043393776039
1520530309.9475324,-0.0352453772401376,0.0483397537129533,0.0152876695670626,0.0361843303237991,0.3309646191631405,9.77903741353432
1520530309.9525497,-0.0362543047695415,0.0483517432189393,0.0106902562298269,0.0325766271849372,0.3177743554854927,9.773274671664248
1520530309.9575655,-0.0360006614944688,0.0547834257758909,0.0028928664022308,0.0193483823424438,0.320173666591929,9.79780611164504
1520530309.9625814,-0.0375097638564023,0.0577141626611971,-0.0035752039066749,0.0205509500553977,0.2901950623466426,9.794337208207196
1520530309.9675975,-0.0380140668639074,0.0603539088413771,-0.0100473641939755,0.013335543777674,0.2889964838830173,9.795570751839223
1520530309.9726143,-0.0412866597326047,0.0603715681270982,-0.0170754900848804,0.0446023043144769,0.278201784913222,9.833627694914618
1520530309.9776304,-0.0410412924681383,0.0589278557053959,-0.0219568983609219,0.0638433877217399,0.2865942693176785,9.819486501186422
1520530309.9826465,-0.0423079875154594,0.0536926399713648,-0.0257822228227551,0.1071358253880823,0.3141711272974492,9.858551118795782
1520530309.9876626,-0.0435706366995992,0.0507855867314055,-0.0285075790185067,0.0963127159714967,0.3021805660030018,9.82380383906954
1520530309.9926784,-0.0453354915121213,0.0467062425915811,-0.0288059810458429,0.1143512316658059,0.3033783015269458,9.818978518067023
1520530309.9976935,-0.0458460084088105,0.04087835513464,-0.028849509305492,0.1215666379435296,0.2997803182969196,9.840992530876376
1520530310.0027106,-0.0476165791761417,0.0338909931704291,-0.031334509353134,0.1275794765082993,0.3009789904205094,9.815365669262174
1520530310.0077257,-0.0516489727032881,0.0263177907585539,-0.0330081173742495,0.1155537993787598,0.3009799270201554,9.809672000055343
1520530310.0127416,-0.0531588395956344,0.0225190031355469,-0.029246574601029,0.1323897473601152,0.3105717391679541,9.839714517361074
1520530310.0177574,-0.0544207007880539,0.0187312404340987,-0.0295436869895982,0.1143512316658059,0.263806667554321,9.843422129300862
1520530310.0227745,-0.0546732737468445,0.0184426711755354,-0.0306276269352414,0.0662485231476479,0.2650095543763177,9.754404077743793
1520530310.0277894,-0.0571835765481752,0.0210670610900258,-0.0316851355183468,0.0578305491569703,0.2458239632214639,9.728937555573951
1520530310.0328064,-0.0576840610987052,0.0231087411631961,-0.0324802781623408,0.0614382522958321,0.2302348567372028,9.735890505540231
1520530310.0378215,-0.060947950669301,0.0266099030172114,-0.0346119009033084,0.0746664971383257,0.2146450009732249,9.681156185481491
1520530310.0428386,-0.0627003071880538,0.0330262293084734,-0.0369946390267093,0.0878947419808191,0.1966568643624213,9.669423530407355
1520530310.0478537,-0.062441441960416,0.0382697923931515,-0.0364139984226056,0.0698562262865096,0.2074505330726061,9.63239997566549
1520530310.0528705,-0.0644494960114017,0.0417736318180786,-0.0393595924676336,0.086692174267865,0.2062500814096889,9.59504866767976
1520530310.0578864,-0.0654543816097553,0.0426503053020618,-0.0404332399022244,0.0999204191103584,0.1774696809881694,9.58797511247575
1520530310.0629015,-0.0669616884463042,0.0438188948333223,-0.0417742767008643,0.089097309693773,0.1966567707024567,9.619439635319509
1520530310.0679183,-0.0672116269017654,0.0435215844019452,-0.0396116658956927,0.1155537993787598,0.1846633059491069,9.608734521882653
1520530310.0729344,-0.0667137768545648,0.0414886455015886,-0.0420630740025136,0.1023255545362664,0.1966557404428462,9.591419424797555
1520530310.0779505,-0.0657153128909464,0.0365355023597762,-0.0421027333458619,0.1335923150730691,0.2086447095178954,9.598076263663293
1520530310.0829666,-0.0634563990947604,0.0330332182525264,-0.0396986978159077,0.1239717733694376,0.1798660886357033,9.676061613189376
1520530310.0879824,-0.06396010232692,0.0301097064646327,-0.0362028985757449,0.1167563670917137,0.253014216423676,9.69465481710121
1520530310.0929985,-0.0624555672238504,0.026901425242322,-0.0348774233742721,0.1035281222492203,0.2710023530344796,9.708711760083784
1520530310.0980144,-0.0604466310729571,0.0248581506091984,-0.0332734433822024,0.1155537993787598,0.3441489822630188,9.716658387504824
1520530310.1030304,-0.0596889592506791,0.0245532212582422,-0.0281366946152026,0.158846237045102,0.3897129465939825,9.719679002444648
1520530310.1080463,-0.0564178169316655,0.0239549782111387,-0.0219246525826206,0.1865052944430432,0.4484686731620275,9.75654109505862
1520530310.1130614,-0.0528966067913028,0.0227755214271268,-0.0162586152357315,0.2478362478036946,0.4640527220082004,9.76406394345017
1520530310.1180785,-0.0508814332899181,0.0215896464613223,-0.0084254103820047,0.3151800397291158,0.4772380217077246,9.769206317329648
1520530310.1230946,-0.0456006060181226,0.0198237392251095,-0.0011438108932267,0.3248005814327473,0.5240037489411099,9.742337761700462
1520530310.1281097,-0.040317587259017,0.0165870691621439,0.0112670451911267,0.3067620657384381,0.5168103113001016,9.752979649170324
1520530310.1331265,-0.035287141458702,0.013061829840615,0.022593961329837,0.3260031491457013,0.5503847445962284,9.74113818722632
1520530310.1381414,-0.0297572225736523,0.0069128698223979,0.0344410280460208,0.3187877428679776,0.5467878852857775,9.719131190452464
1520530310.1431575,-0.0239667683693372,0.0065873282191733,0.0479553651205324,0.25865935722028,0.5192123385455112,9.69882474690058
1520530310.1481736,-0.017925187823784,0.0074332506292045,0.0593137606458012,0.2442285446648326,0.4904340923031773,9.735019734300478
1520530310.1531904,-0.0111258334835033,0.0132424749737213,0.0671914518048031,0.2177720549798458,0.4904361528223985,9.75503369276358
1520530310.1582055,-0.0045798440258645,0.018180361005089,0.0739807568475425,0.1889104298689508,0.4244856773738408,9.776297518952488
1520530310.1632214,0.003721109060418,0.0228399350261083,0.0761652915117522,0.1480231276285166,0.3669301214888192,9.774427331246528
1520530310.1682384,0.0117653100267098,0.0242978229467032,0.0769731094813216,0.1432128567767008,0.3525408110477232,9.800055350536049
1520530310.1732545,0.0195568086683232,0.0263456657770202,0.0750803813857691,0.1396051536378391,0.3297574239827724,9.787329099654665
1520530310.1782694,0.0268401701169321,0.0257774068302281,0.0707336659058619,0.0818819034160491,0.2793980218777324,9.77283218320676
1520530310.1832857,0.0353770775575225,0.0228778355117335,0.0666373780230226,0.0975152836844506,0.2530157149831095,9.837785804372984
1520530310.1883025,0.0421551597905314,0.0211474837000255,0.0609299741689136,0.0806793357030952,0.2494196049523752,9.82516959968429
1520530310.1933174,0.0494352241778475,0.0191266727031758,0.054948867887051,0.0638433877217399,0.263810601272834,9.82880587026592
1520530310.1983335,0.0572195131930056,0.0179787553371526,0.0495145892063771,0.1035281222492203,0.2626083700705895,9.824934340880445
1520530310.2033503,0.0642522305062273,0.0159447341255406,0.0484037757740081,0.1396051536378391,0.2853892283164962,9.78621022125268
1520530310.2083676,0.0710372557696537,0.0162402338145946,0.0478523055391895,0.1504282630544244,0.3021763513045951,9.764007769865186
1520530310.2133815,0.0773152886038897,0.0150866266978466,0.0443146484694522,0.1155537993787598,0.341750701416193,9.76082219644365
1520530310.2183986,0.0830944951828304,0.0121641194363592,0.0483398714196344,0.1708719141746417,0.3537377972919504,9.756785638592886
1520530310.2234144,0.0881211695802639,0.0104075833484863,0.0521048409849677,0.2261900289705234,0.3417420846994503,9.772528914748843
1520530310.2284305,0.0931474480157718,0.0083596627333204,0.0558675874649914,0.1925181330078127,0.3789180603042579,9.75887467936141
1520530310.2334476,0.1006896197736627,0.0089373727124108,0.0588340367923845,0.1636565078969178,0.4148945208457943,9.733553353545329
1520530310.2384624,0.1047094718850772,0.006307746082628,0.0620531122030719,0.1672642110357798,0.4124959590190749,9.754439168230496
1520530310.2434783,0.1104910150457399,0.0068898658904012,0.0631290073220556,0.1732770496005495,0.4280843162236192,9.771797600851404
1520530310.2484956,0.1142639630990793,0.0057090506997954,0.0693356697374758,0.158846237045102,0.4292845805666072,9.78239618777724
1520530310.2535105,0.1162737303636553,0.0024922252157543,0.0739067622432207,0.1552385339062403,0.4148951764655465,9.751067448253602
1520530310.2585266,0.120046768593051,0.0021892057623661,0.0787673644350635,0.1865052944430432,0.4017021966489255,9.761235275106236
1520530310.2635417,0.1208030800417017,0.0021814883872453,0.0817419691201631,0.1756821850264573,0.3969064778949553,9.754372434245758
1520530310.2685585,0.1230653810752367,0.0010095520672708,0.0844343352284952,0.113148663952852,0.3957122077897014,9.714307228121502
1520530310.2735755,0.1255775343203076,0.0007206089575304,0.0838863531186699,0.0939075805455889,0.3873197233852448,9.747042725117206
1520530310.2785904,0.1283384851891566,0.0010254598239345,0.079284162017674,0.0878947419808191,0.366934804487049,9.716905386356885
1520530310.2836063,0.1316044957316614,0.0024931319863223,0.0757721133949787,0.0794767679901413,0.330961247404415,9.720508833792016
1520530310.2886224,0.1313560588121086,0.0054105209590485,0.0744420814918398,0.1432128567767008,0.3585365131647876,9.687321540280546
1520530310.2936375,0.1313605908132718,0.008907863717631,0.0741982126196536,0.1624539401839639,0.3201625210561422,9.659280223332456
1520530310.2986546,0.1311180893904721,0.0147325420836759,0.0753253246327216,0.1203640702305757,0.3153692374612515,9.668991729298128
1520530310.3036704,0.1318711978860174,0.0156135469117899,0.0728956806557253,0.110743528526944,0.3045777229302524,9.710933076154673
1520530310.3086855,0.1323694438951436,0.0138719925387262,0.0704464956342141,0.137200018211931,0.2686014497086452,9.739764243946263
1520530310.3137014,0.1308552724078402,0.0095020907582183,0.0698748579023957,0.1323897473601152,0.2793940881592194,9.699125501721053
1520530310.3187184,0.127332470555513,0.0065890524009093,0.0690475234873946,0.1335923150730691,0.305775083814338,9.751384549140996
1520530310.3237343,0.1225527315417241,0.0022135001119528,0.0701052285335108,0.1516308307673783,0.3237607852660621,9.772110024381798
1520530310.3287504,0.1205377226639278,-0.0006989475121061,0.0692750937788818,0.1528333984803325,0.3273581128763361,9.811607705751074
1520530310.3337665,0.1185219689163738,-0.0030235270641046,0.0665555839235634,0.1311871796471613,0.3201649562152217,9.81879827652756
1520530310.3387823,0.1109771156010599,-0.0047631329970275,0.0622275127754257,0.1083383931010362,0.3465478250696321,9.849210689945862
1520530310.3437974,0.1044369283421554,-0.0073786839828657,0.0587025431659778,0.1119460962398979,0.3237638760448937,9.814333473595754
1520530310.3488135,0.0991551327265271,-0.0064876587595994,0.0516848203171722,0.0915024451196808,0.3285620299579433,9.840094949190824
1520530310.3538306,0.0931207186854666,-0.0038449795838618,0.043329106670532,0.1167563670917137,0.3357549056391641,9.853787854421004
1520530310.3588464,0.0855796525015584,-0.0014993746861418,0.0368677915495188,0.0494125751662926,0.3441541335610715,9.83584084893862
1520530310.3638616,0.0797984700451207,0.0014296884549557,0.0304076555362255,0.0650459554346938,0.3693348648732021,9.8275291194013
1520530310.3688796,0.0699966356891552,0.0034786521391008,0.0255715932147519,0.0854896065549111,0.3465496046089594,9.808758047620293
1520530310.3738945,0.0599531349562039,0.0116422218544481,0.0224059577834584,0.0686536585735557,0.3681354434698954,9.77752298353985
1520530310.3789103,0.0531697876486673,0.0148535345278582,0.0191964624993748,0.0698562262865096,0.3789276136206466,9.785635762109711
1520530310.3839264,0.0463883770287962,0.0198146112271612,0.0154592139353462,0.0698562262865096,0.4161009667464457,9.768167353279685
1520530310.3889425,0.0375988613717147,0.0256454117086704,0.0130850978929231,0.1023255545362664,0.449674369782962,9.742251408264362
1520530310.3939574,0.0285543969842889,0.0294393357678589,0.0096137033929992,0.0722613617124177,0.4472784304352511,9.758816388712589
1520530310.3989744,0.0227797184743806,0.0343957072718539,0.007768409207194,0.1023255545362664,0.4556700719000263,9.76432629669828
1520530310.4039917,0.0157439706959039,0.0361470851289866,0.0056304488034386,0.0975152836844506,0.4316876380716273,9.792287958610236
1520530310.4090054,0.0051848526153239,0.0358654056592314,0.0005074560734011,0.1347948827860232,0.4184941899551833,9.814018699722933
1520530310.4140215,-0.0008456527927051,0.038787814465177,-0.0035173001535097,0.0842870388419572,0.4172989832502834,9.85867295169241
1520530310.4190383,-0.0101440583768108,0.0396634242094881,-0.0053871834078507,0.0963127159714967,0.39331523818238,9.879497879089085
1520530310.4240544,-0.0176879472804231,0.037335221773437,-0.0075553335593976,0.0963127159714967,0.383722114795077,9.896939393116371
1520530310.4290705,-0.0227173934113359,0.0370520661702597,-0.0113358647218981,0.0963127159714967,0.3813238339482513,9.871374564802048
1520530310.4340866,-0.0287504118210686,0.0361777349485841,-0.0121429703070188,0.1359974504989771,0.3945112878269612,9.883759018704646
1520530310.4391024,-0.0342813618325689,0.0344272617629098,-0.0121460409069073,0.1275794765082993,0.4089016285276678,9.851286891310496
1520530310.4441175,-0.03981046533246,0.0335487568659107,-0.0113308045631633,0.1095409608139903,0.4232927185080912,9.82007054832198
1520530310.4491334,-0.0443351223178857,0.031795035347064,-0.0099830125766309,0.1335923150730691,0.4316848282726894,9.836098277177772
1520530310.4541504,-0.0470993663158964,0.031501110946677,-0.0094390099141535,0.1660616433228259,0.4556651079219028,9.807867398968012
1520530310.4591663,-0.0493633413731901,0.0306297134202622,-0.0107942081401465,0.1456179922026086,0.4292856108262177,9.790659951077464
1520530310.4641814,-0.0533874706861233,0.0265414704388168,-0.0081124048031273,0.1251743410823915,0.5036339092972139,9.814029317087616
1520530310.4691985,-0.0576570064533544,0.0256532597845768,-0.0035118595331226,0.1143512316658059,0.4736562416515735,9.826947479573102
1520530310.4742146,-0.0571593328261353,0.0233282079258595,-0.0056949448293519,0.0963127159714967,0.4808524890915196,9.82362960752134
1520530310.4792304,-0.0576634280880895,0.0215767901267476,-0.0046251663110618,0.0987178513974045,0.5168265144739765,9.80846324582615
1520530310.4842465,-0.0579169262687501,0.0201204974658093,-0.0049063609102397,0.0301714917590294,0.5144335722451328,9.781241317819688
1520530310.4892626,-0.0591755295897085,0.0195416067199219,-0.0065317488399096,0.0277663563331216,0.5060397766011718,9.776624337490412
1520530310.4942777,-0.0584231228419582,0.0207176382306678,-0.0103118992111025,0.0229560854813057,0.4760616406557084,9.739511784662348
1520530310.4992943,-0.059175427617259,0.0248098380053637,-0.0151492019731765,0.0662485231476479,0.4688634263565058,9.741421706574936
1520530310.5043104,-0.0569123699175733,0.0274404691615529,-0.0178388536738444,0.0662485231476479,0.4688634263565058,9.744908138437596
1520530310.5093255,-0.0538951530667154,0.0297778258638709,-0.0197204909419322,0.0686536585735557,0.4748589411536409,9.735581729994742
1520530310.5143414,-0.0528856061013108,0.0315199709701847,-0.0172741062600488,0.0782742002771874,0.4808538939909885,9.722698659350671
1520530310.5193584,-0.0503691012071891,0.0329727791445913,-0.0153738367949055,0.0638433877217399,0.4340885413974617,9.725209012166964
1520530310.5243735,-0.0488559019958495,0.035004320396078,-0.0121145247865515,0.1059332576751284,0.442479246262591,9.70503470259557
1520530310.5293894,-0.0483540492074301,0.0355923853792218,-0.0140048333337836,0.1071358253880823,0.4388817313323878,9.70735079346533
1520530310.5344064,-0.0428269765033918,0.0323798519970355,-0.0105224585374421,0.1119460962398979,0.4304873737286393,9.730555037698757
1520530310.5394225,-0.0410712288151589,0.0297573520091235,-0.0102751874722264,0.1359974504989771,0.4436760451868889,9.700092331028788
1520530310.5444374,-0.0385617179376794,0.0265501930400473,-0.0092221250597401,0.110743528526944,0.4101020801905851,9.720127325934454
1520530310.5494545,-0.03631066846165,0.0213178125457353,-0.0135950754391743,0.0806793357030952,0.4041087195726356,9.729722950675114
1520530310.5544703,-0.0335474398615658,0.0195662178065296,-0.011990272531609,0.0638433877217399,0.4137031541994429,9.718256027208891
1520530310.5594864,-0.0305401691129419,0.0134483241998791,-0.0120425580023662,0.0927050128326349,0.4256923105944213,9.704017685011536
1520530310.5645015,-0.0277788301464295,0.0111176025614267,-0.0117949307449262,0.0542228460181084,0.3945176567045537,9.692801210095476
1520530310.5695186,-0.0257747749045315,0.0064562377690739,-0.0118342338960501,0.0229560854813057,0.3669398621251372,9.741942482442504
1520530310.5745344,-0.0202442639769194,0.0082081678168839,-0.0123722550879641,0.0746664971383257,0.3945160644851556,9.700737231815763
1520530310.5795505,-0.0164711316393365,0.0102464226167881,-0.0112815107562619,0.140807721350793,0.4136971599617088,9.645453978436027
1520530310.5845675,-0.0139599546023603,0.0061556404619518,-0.0067180209529884,0.0602356845828782,0.4508767883051356,9.669444846784229
1520530310.5895824,-0.0101894685644999,0.0038122008864456,-0.0016024344624115,0.0686536585735557,0.4280924646405389,9.711222311186877
1520530310.5945976,-0.0054180957373736,-0.0005654375404694,0.0016019022666043,0.1083383931010362,0.4232928121680558,9.722462161224
1520530310.5996144,-0.0006392035657917,-0.0008702484648943,0.0072722752530655,0.0939075805455889,0.4436793232856498,9.652854105880724
1520530310.6046305,0.0026366902963292,0.0020281228155168,0.0135109943093625,0.0746664971383257,0.4460791026919091,9.668146919509892
1520530310.6096466,0.0074184874994094,0.0043479579299314,0.0183897373759063,0.0602356845828782,0.4676647542329158,9.641537021133471
1520530310.6146617,0.0132030611253271,0.0052127210921839,0.0227144063310144,0.0674510908606018,0.5036384049755145,9.625161695258358
1520530310.6196785,0.0187359438923618,0.0072494797876765,0.0246135212875211,0.0313740594719833,0.4472816148740474,9.622081374033224
1520530310.6246946,0.0247712047756293,0.0092871638253202,0.0262411569015839,0.0325766271849372,0.4556755041779728,9.619737195693611
1520530310.6297104,0.0287961652022453,0.0122018559558482,0.0265264660782399,0.0085252729258582,0.4784610454221093,9.619949079376394
1520530310.6347263,0.0335726933986667,0.0145391734158901,0.0249121076431541,0.040994601175615,0.4724628144860009,9.61034173791538
1520530310.6397424,0.0388524347571347,0.0171673438832405,0.0235695847427365,0.0325766271849372,0.4556755041779728,9.617412907785177
1520530310.6447575,0.0426235912172206,0.019212154562755,0.0222254160113276,0.0301714917590294,0.4292946021828189,9.632569914766368
1520530310.6497755,0.0476536136621717,0.0215422861676605,0.0233160498119828,0.0193483823424438,0.4256980238522616,9.602463025482256
1520530310.6547904,0.0486607887881537,0.0229996026262917,0.0233252983454455,0.0277663563331216,0.4244982278090966,9.620976562694027
1520530310.6598055,0.0509289900607413,0.0279547541212138,0.0230883443903653,-0.0143235136202668,0.4173066633673802,9.651608998514144
1520530310.6648214,0.0534389910083338,0.0273802539327229,0.0203737720280206,0.0145381114906282,0.3561482539341735,9.674630592546029
1520530310.6698394,0.0559504816954413,0.0256300176001112,0.0214379498670548,0.0121329760647201,0.3753346880287086,9.69322959649839
1520530310.6748545,0.0582090465837953,0.0230069860922147,0.0219548333816291,0.0433997366015228,0.3609425677886747,9.70223644873606
1520530310.6798704,0.0607217682786424,0.0218380619520531,0.023564549183085,0.0361843303237991,0.3861250786401325,9.729011433897412
1520530310.6848874,0.0607231717742323,0.0212480085867893,0.0262655619714781,-0.0047029719166351,0.4173059140876634,9.71891970740744
1520530310.6899035,0.0607196081169017,0.0186255478411532,0.0262455542036918,0.0361843303237991,0.4448829593873632,9.704549113235576
1520530310.6949174,0.0619796619875436,0.019785022348423,0.0286870259916846,0.0013098666481343,0.4472839563731622,9.70372407723922
1520530310.6999354,0.0622347832057383,0.0206505332130296,0.0319397792751569,0.0229560854813057,0.4916504661600757,9.755766598611167
1520530310.7049506,0.0649981490359726,0.0209473713376879,0.0303135930290745,-0.0299568938886682,0.4856588850814536,9.734206732660011
1520530310.7099664,0.0655004840302428,0.0212411380692675,0.0295032449801378,-0.0443877064441156,0.5120410983161119,9.755240059049576
1520530310.7149816,0.0662576815109321,0.0241574640020249,0.028712437975716,-0.0263491907498063,0.4736671998674311,9.755101902059172
1520530310.7199984,0.0672639000894745,0.0291303339959337,0.0217141702394617,-0.03356459702753,0.4640746384399157,9.747046479432194
1520530310.7250144,0.068014632813466,0.0282630316602904,0.0192711877506079,-0.0251466230368524,0.4748662466308793,9.825979808870864
1520530310.7300303,0.0692692843794303,0.0288550341653982,0.0160267495540556,-0.0407800033052536,0.5072442556425666,9.853991857345925
1520530310.7350476,0.0692641447386594,0.0279939923427401,0.0111502541719047,-0.0528056804347931,0.474868400810065,9.818114017489131
1520530310.7400634,0.0712711481340181,0.0256644321997982,0.0108581898073562,-0.0455902741570695,0.4856601026609933,9.782006800516536
1520530310.7450774,0.0677484795797098,0.0233363481902784,0.0092236638752706,-0.0227414876109444,0.4796626210046016,9.8375731609432
1520530310.7500954,0.0669855661442115,0.0175120044331346,0.0078278728593866,0.0037150020740424,0.5024442285302251,9.80010482572107
1520530310.7551095,0.0672308353683594,0.0122635392420652,0.0091401200800489,0.0097278406388121,0.5204308665815952,9.813974487800822
1520530310.7601264,0.0654641340442282,0.0073122268135655,0.0080234111090802,0.0061201374999504,0.5300242709487919,9.772163065904214
1520530310.7651415,0.0634465690427655,0.0008958805513139,0.0098720582897485,0.0253612209072136,0.5659969850917446,9.799832159725163
1520530310.7701583,0.0626854158749512,-0.0034708121382976,0.0082168368045112,-0.0047029719166351,0.569596747861098,9.810580573706044
1520530310.7751744,0.0624293615706243,-0.0084310034374287,0.0106144241406307,0.0025124343610885,0.5576047816671817,9.829116340027488
1520530310.7801914,0.0594085418726042,-0.0116345009798794,0.0095133872978761,-0.0215389198979905,0.5683989186771895,9.803772750109946
1520530310.7852075,0.057142979035477,-0.0151349151315405,0.0105730943672079,-0.0155260813332205,0.5731950120710181,9.806033835379257
1520530310.7902234,0.0531184616248803,-0.0165875856081294,0.0084050793457912,-0.0215389198979905,0.5576066548664736,9.816566857659604
1520530310.7952375,0.0511039428171969,-0.016867374451603,0.0038073098163313,-0.0227414876109444,0.5336239400581808,9.842169116493844
1520530310.8002534,0.049338119660842,-0.0218216006043739,0.0037727844289675,-0.0491979772959312,0.5348251410008148,9.859857617709258
1520530310.8052714,0.0435522248511286,-0.0241454716962942,0.0002486377350152,-0.0107158104814049,0.5528092502331409,9.855979083952215
1520530310.8102877,0.0405300879014439,-0.0273445986523381,-0.0024756744831467,0.0494125751662926,0.562397690622214,9.890248795043478
1520530310.8153014,0.0370027501158223,-0.0352184582843044,-0.0006353423893984,0.1119460962398979,0.563591960727468,9.93263828907617
1520530310.8203185,0.0324714048996237,-0.0422185581565586,0.0012135258533638,0.1191615025176218,0.5995656114700665,9.929046546697464
1520530310.8253355,0.0259301551886991,-0.0480502654086358,0.0017222907440288,0.1071358253880823,0.5935708459526481,9.893142981377183
1520530310.8303494,0.020395198503849,-0.0538852209938852,0.0035819182211148,0.0662485231476479,0.6295482430938305,9.880722289621776
1520530310.8353665,0.0148638917202547,-0.0576833986123557,0.0065392908789727,0.0458048720274308,0.6079653076917969,9.86467230832845
1520530310.8403826,0.0075746418289863,-0.058851791932236,0.0065439335126027,0.0301714917590294,0.6079665252713367,9.867148761970428
1520530310.8453977,0.0035523668919244,-0.0591411095928568,0.0051964485201281,0.0361843303237991,0.6031694952778622,9.855473474503103
1520530310.8504145,-0.0034886146355104,-0.0605920478116747,0.0019518505943623,0.0229560854813057,0.5779885766458025,9.880031809286637
1520530310.8554304,-0.0065082856375851,-0.0611650718667435,-0.0021051833355194,-0.0179312167591285,0.5444158292290383,9.827003900810045
1520530310.8604465,-0.0115379513104421,-0.061447499038853,-0.006156260393921,0.0397920334626609,0.5156319633888289,9.824145834335134
1520530310.8654616,-0.0168170693007783,-0.0608580563778289,-0.0093885637854189,-0.0203363521850366,0.5156366463870585,9.789866768529876
1520530310.8704784,-0.0188270600394295,-0.0591039809787947,-0.0118064045505019,0.034981762610845,0.5204288997223387,9.69635214223974
1520530310.8754945,-0.0165622460041908,-0.0564791772711479,-0.01233168908396,0.0446023043144769,0.4808565164699972,9.7044320976631
1520530310.8805115,-0.0200808647631867,-0.0550156202705212,-0.0152900443865271,0.0037150020740424,0.4400889265127558,9.6874376678028
1520530310.8855264,-0.0230931457866936,-0.0506372926548143,-0.0184976481784422,0.0361843303237991,0.4161035892254543,9.633686396170202
1520530310.8905437,-0.0233394264766369,-0.0459708680872629,-0.0200848874656249,0.013335543777674,0.3933217007199371,9.629282433871168
1520530310.8955574,-0.0225800217801134,-0.0386713909169595,-0.0254416284207238,-0.0215389198979905,0.3561510637331113,9.606415250939888
1520530310.9005744,-0.0203116793452447,-0.0302043280420988,-0.0313333691660148,-0.0504005450088853,0.3561533115722616,9.603209740431462
1520530310.9055903,-0.0208130341992891,-0.0252327772125079,-0.0380582906667399,-0.0528056804347931,0.3405646733878235,9.600924064046124
1520530310.9106064,-0.019801977833714,-0.0173489756699414,-0.0439521439662934,-0.0311594616016219,0.3393638470850479,9.608849550049232
1520530310.9156215,-0.0200491758812654,-0.0109233174726156,-0.0495842331801371,-0.0143235136202668,0.353752220926498,9.600536639508736
1520530310.9206374,-0.0215524681802024,-0.0027432885096306,-0.0576355633288777,-0.005905539629589,0.3597472674238102,9.636475319998295
1520530310.9256544,-0.0212949554619298,0.0057244435830322,-0.0640646620798005,0.0157406792035821,0.3525507390039702,9.63743378897234
1520530310.9306705,-0.023550215424729,0.0127269841731357,-0.0677947500655458,0.0710587939994638,0.3645378348797276,9.648505102526425
1520530310.9356863,-0.0280680469492319,0.0182680738715606,-0.0701790234888909,0.0626408200087862,0.4125041074359946,9.628783817129698
1520530310.9407024,-0.0300729372369438,0.0226395109987561,-0.070683035214879,0.1251743410823915,0.4352829051626802,9.660692967467922
1520530310.9457183,-0.0325788021452985,0.0264199694185366,-0.0682145548100301,0.0915024451196808,0.4592683361099463,9.698185928797876
1520530310.9507344,-0.0360858165068258,0.0325281965102222,-0.0646442392460142,0.0770716325642335,0.444879774948567,9.72274544458459
1520530310.9557505,-0.0393413124973205,0.0386357936263817,-0.0608038445093685,0.1047306899621745,0.4952415185527219,9.714292108358762
1520530310.9607666,-0.0443513722224024,0.0467765657962573,-0.0547802539454465,0.1227692056564837,0.5468031518600064,9.734984842100578
1520530310.9657817,-0.0470979430281723,0.054619555228037,-0.0460576280172636,0.1913155652948588,0.579174604674172,9.66688173237983
1520530310.9707975,-0.0488348727603503,0.0665459640194229,-0.038658475267338,0.1672642110357798,0.6103541288821985,9.63338325601551
1520530310.9758146,-0.0500773436148078,0.0726456076071022,-0.031575263566048,0.0662485231476479,0.5587989581124712,9.592579579991163
1520530310.9808304,-0.0515713680979984,0.0819656795918856,-0.0301485950170071,0.0229560854813057,0.5156332746283332,9.651150255946456
1520530310.9858463,-0.0555839204069014,0.0886688621552263,-0.0311721800661504,0.0205509500553977,0.4712652662819861,9.727918432590007
1520530310.9908614,-0.0581006017210045,0.086923941022459,-0.0328041267207021,0.1167563670917137,0.4328852799356066,9.758397333695813
1520530310.9958775,-0.0553395685403614,0.0851796305939314,-0.0339047827721491,0.0686536585735557,0.455672694379035,9.780924053637282
1520530311.0008955,-0.0558552721319153,0.0773200641876859,-0.0369398774838789,0.038589465749707,0.4604715975718014,9.80794131363798
1520530311.0059114,-0.0568676810068555,0.0726604316531042,-0.038055763539352,0.1155537993787598,0.4532707607935901,9.80022634233688
1520530311.0109265,-0.0561140040615342,0.072661455450797,-0.0383277096050671,0.0975152836844506,0.4364841997652788,9.787634705436362
1520530311.0159426,-0.0545995307204925,0.0749814675053053,-0.0339839909277987,0.0578305491569703,0.4448812735080005,9.782202067152586
1520530311.0209584,-0.0518364746082587,0.0744012383238137,-0.0345346628462048,0.0313740594719833,0.4376884914867444,9.747602275802889
1520530311.0259745,-0.0490799694966478,0.0706230636527783,-0.0378152476620288,0.0674510908606018,0.3969149072917689,9.736831586056612
1520530311.0309904,-0.0443012498129164,0.0714896182860674,-0.0343003495015391,0.0686536585735557,0.4173002008298231,9.720529986873876
1520530311.0360065,-0.0400251709093245,0.0726488173977017,-0.0313233866009996,0.0494125751662926,0.4640681759023586,9.700915216324235
1520530311.0410223,-0.0352523867223462,0.0706080826376722,-0.0302656323567169,0.0830844711290033,0.4796543789277173,9.721490864509995
1520530311.0460384,-0.0292217911382608,0.0685634695689443,-0.0275869363533834,0.0758690648512796,0.5204257152835425,9.734304920810477
1520530311.0510554,-0.0226911971416274,0.0633079961625355,-0.0227692605677882,0.1492256953414705,0.5695847593856299,9.66381433220609
1520530311.0560715,-0.0141469585729559,0.0597987038399463,-0.016859796472901,0.1552385339062403,0.6475284186076435,9.696219830590865
1520530311.0610864,-0.0053536636487308,0.0551261571569306,-0.0117713291302272,0.1672642110357798,0.6631163075123649,9.74257333678512
1520530311.0661025,0.0019271730017812,0.0463707226342931,-0.0056290010586548,0.1828975913041812,0.6942927409415598,9.72960718473468
1520530311.0711195,0.0107139129932524,0.037036751945659,-0.0008466489768357,0.1877078621559971,0.6835001024909855,9.763273063234577
1520530311.0761354,0.020755249632332,0.0241971896033371,0.0074237891116277,0.2117592164150761,0.7206715824174926,9.78740773562791
1520530311.0811515,0.0318027068096357,0.012525744485557,0.0148896149605406,0.2430259769518787,0.7578425003842122,9.787067154644088
1520530311.0861654,0.0420971456674505,0.0008510902768805,0.0234390245628724,0.2406208415259707,0.7866220578660503,9.764981765484784
1520530311.0911834,0.0523872328762144,-0.0125653152159429,0.0295401825902355,0.2490388155166485,0.7782274192824081,9.80209662199956
1520530311.0961986,0.0609249596340945,-0.021028872933579,0.0356824001307609,0.2225823258316615,0.7746320585313906,9.793060489624937
1520530311.1012144,0.0712218252496877,-0.0283211043357772,0.0399364216783168,0.1937207007207666,0.7602446212895864,9.72711323765967
1520530311.1062305,0.085036701984669,-0.0344405918026778,0.0420284342741027,0.1877078621559971,0.7206734556167845,9.743480366496112
1520530311.1112475,0.0950874633303004,-0.0367742856789639,0.0444268937238842,0.2057463778503061,0.6763038550510394,9.775888086920087
1520530311.1162624,0.1056397638142196,-0.0408604603943308,0.048434356590673,0.21296178412803,0.6259393953079113,9.713111195302185
1520530311.1212797,0.1171947936668829,-0.047572344188506,0.0537726742760964,0.2273925966834773,0.6259382713883361,9.694376431357565
1520530311.1262956,0.1297573946074537,-0.0525355269967572,0.059122463580292,0.2622670603591419,0.6439226616005559,9.705640884174649
1520530311.1313114,0.1430749035010853,-0.0569163738148653,0.064745844781194,0.2923312531829907,0.6487168817950926,9.6693171178262
1520530311.1363275,0.1556360068378789,-0.063630777511145,0.0711644791571371,0.2550516540814183,0.6523172065242335,9.645271443519064
1520530311.1413434,0.1684520157830542,-0.0680154633956755,0.0781415232840879,0.1961258361466746,0.63193640866448,9.634243430509004
1520530311.1463575,0.1815161166720814,-0.0729748071375043,0.0821376496622347,0.1251743410823915,0.6535264622238228,9.66396657958714
1520530311.1513746,0.1925723359979734,-0.07560167701212,0.0853436568213251,0.0662485231476479,0.5815826261573156,9.655313136073252
1520530311.1563904,0.2056359586132808,-0.0788032439863099,0.0858360250646134,0.0602356845828782,0.5743882519166614,9.679783700429486
1520530311.1614065,0.2169458133499834,-0.0779253883361233,0.086092237669234,0.0650459554346938,0.5851801410875188,9.65764562102037
1520530311.1664224,0.2292580014935043,-0.079964626292038,0.0876770820071795,0.0770716325642335,0.5791835023708085,9.644750833655944
1520530311.1714385,0.2398100471777789,-0.0808302741547592,0.0860275349984479,0.0710587939994638,0.5360149154277681,9.658797182601695
1520530311.1764543,0.2496114895039499,-0.0817071438501225,0.0884375765980487,0.1023255545362664,0.561194429160359,9.632901128017547
1520530311.1814704,0.2556432259197184,-0.0840482404636179,0.0930078707873812,0.1287820442212532,0.5803786154157438,9.641922058981928
1520530311.1864865,0.2644337099206327,-0.0890041589321806,0.0951181101898319,0.1227692056564837,0.5827773645623926,9.665221124669944
1520530311.1915035,0.268709043954467,-0.0872570917484859,0.0962056979896819,0.1083383931010362,0.580380207635142,9.665363924025558
1520530311.1965184,0.2734897395156955,-0.086397092994807,0.1021555092132827,0.0915024451196808,0.5839789401448849,9.701550749378567
1520530311.2015345,0.2767538996144601,-0.0872648676371692,0.1002489512835181,0.0782742002771874,0.6007679363322757,9.707473854020854
1520530311.2065504,0.2780118051197545,-0.0849274716925752,0.0981000351824284,0.0782742002771874,0.588776532098147,9.733052714406174
1520530311.2115664,0.2757499000481452,-0.0834641508453078,0.0954098921594059,0.0277663563331216,0.5480096914206223,9.760313395257606
1520530311.2165816,0.2699711756750554,-0.0808359418353846,0.092464629707519,-0.0071081073425429,0.5276270203615767,9.8025099030131
1520530311.2215984,0.265949214388125,-0.0787847136737808,0.087617832750805,-0.0275517584627602,0.5348234551214521,9.818971888295918
1520530311.2266145,0.2576581211601511,-0.0744033546069747,0.082526208876279,-0.0323620293145758,0.5228324255271818,9.831813985410529
1520530311.2316315,0.2501188583658895,-0.0708929400311509,0.0763443319924054,-0.0479954095829773,0.5216345026833087,9.818021593032691
1520530311.2366474,0.2413221370144838,-0.0667944212299073,0.0680048677282976,-0.0167286490461746,0.5312251909115322,9.797951459629886
1520530311.2416637,0.2317823787035235,-0.0574636596321695,0.0643060993998974,-0.0648313575643326,0.5180383926525743,9.813540396023532
1520530311.2466774,0.2212385345823232,-0.0437464984637133,0.0546905345343991,-0.1045160920918131,0.5408251514762505,9.763932255408433
1520530311.2516944,0.2099391630720613,-0.0323658078976999,0.0469524064275467,-0.0985032535270433,0.5396255427530147,9.781307058778836
1520530311.2567084,0.195616333428319,-0.0256433522173982,0.0372904883636882,-0.03356459702753,0.5108411149530176,9.777216618011154
1520530311.2617264,0.1820522811808373,-0.0163025110112424,0.0292704532732093,-0.0215389198979905,0.5024461953894817,9.78756704840961
1520530311.2667425,0.172504258655664,-0.0104567088439344,0.0212162735866743,-0.0287543261757143,0.5468149530155454,9.859646938357516
1520530311.2717586,0.1579345249538465,-0.0022854417244558,0.0145419425275486,-0.0179312167591285,0.5468141100758641,9.919973078469074
1520530311.2767744,0.142109524182195,0.0050031667936896,0.0108392806837642,0.0001072989351806,0.6043714455002129,9.936011389697764
1520530311.2817895,0.1270338957609078,0.0117216849520272,0.0025314922692258,-0.0504005450088853,0.678722085470324,9.91667405581246
1520530311.2868075,0.1107066972251361,0.0207649596024569,-0.0035918106792694,0.0277663563331216,0.737473878319856,9.970476695369818
1520530311.2918234,0.0961382807749832,0.0289318561355286,-0.0086428663629877,0.0494125751662926,0.7722472647194665,9.980691389103876
1520530311.2968376,0.0815665672635377,0.0356462006185427,-0.0153283128486614,0.034981762610845,0.8202140055755565,10.04237870578462
1520530311.3018544,0.0662385305070483,0.0379778269284534,-0.0177169711097452,0.040994601175615,0.8250100989693849,10.064396238275652
1520530311.3068705,0.0491436669926708,0.0377001434942248,-0.0252627420978395,0.0710587939994638,0.8381983021278117,10.055955741453715
1520530311.3118863,0.0333025298223874,0.0368467391627289,-0.0352502059360206,0.0554254137310623,0.851390064364893,10.050284324684414
1520530311.3169024,0.02072853616203,0.034237566416704,-0.0420105249377717,0.1203640702305757,0.8837617981589524,10.05543139924875
1520530311.3219194,0.0043773603687771,0.0257984978606282,-0.0485377589007435,0.1263769087953454,0.9065449979039738,10.036756353253368
1520530311.3269346,-0.0107119111100935,0.0208543506165721,-0.0542290117686531,0.1023255545362664,0.9305296795715232,9.99861631710767
1520530311.3319497,-0.0215271697389256,0.0161981626265428,-0.0580321545755569,0.1059332576751284,0.9281311177448038,10.027637139472368
1520530311.3369677,-0.035855997662039,0.0129887777225807,-0.0585710970792996,0.110743528526944,0.9569101132668542,10.05429156605171
1520530311.3419836,-0.0481778182576625,0.0089133111917515,-0.0618259015841539,0.0999204191103584,0.9449195519724068,10.024192862142346
1520530311.3469985,-0.0622587345890365,0.0033736769560558,-0.0626536413895458,0.1263769087953454,0.9497140531468372,10.005336370276463
1520530311.3520143,-0.0748319912438985,-0.0027503208941789,-0.0626769900174811,0.0987178513974045,0.9629067519835646,9.973052693124384
1520530311.3570316,-0.0856383701546476,-0.0036308933575533,-0.0618519524850393,0.0578305491569703,0.9749013406564896,9.93973679697803
1520530311.3620465,-0.0974484898999361,-0.0024677973656374,-0.0626327618377526,-0.0167286490461746,0.941331215718734,10.012548177137033
1520530311.3670614,-0.106246497177437,-0.0030481849156396,-0.0647852398610854,0.0325766271849372,0.919742848038754,10.008602886067392
1520530311.3720784,-0.1193221672062324,-0.0059533096864476,-0.069923573126196,0.0265637886201675,0.9053536312576224,9.987756852244576
1520530311.3770957,-0.1326475130265821,-0.009449314709129,-0.0720898809837409,0.0842870388419572,0.9173405398134508,10.029020498495507
1520530311.3821115,-0.1409499205946794,-0.0161529510076054,-0.0726667018697103,0.1167563670917137,0.9353251173455996,10.056578376784511
1520530311.3871274,-0.1525131872681174,-0.0190727820975873,-0.0721263716605229,0.140807721350793,0.932924963299482,10.041238742929638
1520530311.3921435,-0.1620654086151463,-0.0234574893525138,-0.0683543399132393,0.1660616433228259,0.9161350305124452,9.995685693279636
1520530311.3971584,-0.1728764606893397,-0.0313473159544094,-0.0616306467184006,0.1287820442212532,0.9245319169352378,9.976283917432378
1520530311.4021754,-0.1821834990561459,-0.0403948056215483,-0.0576241051634405,0.1263769087953454,0.9017484362103224,9.96470810544878
1520530311.4071915,-0.1947541643296411,-0.0462347032551682,-0.0549397717470538,0.1155537993787598,0.9089441216904812,9.967130722829555
1520530311.4122057,-0.2030465944699348,-0.0491663661823288,-0.0495356828141715,0.1167563670917137,0.8465887260130471,9.9358019366502
1520530311.4172237,-0.2103392786526459,-0.0538357444161306,-0.0479344418288492,0.0939075805455889,0.8298025396245943,9.831447747592074
1520530311.4222395,-0.2156171264454111,-0.0544213094681596,-0.0476585409148694,0.0674510908606018,0.7926312470180163,9.815471492991122
1520530311.4272554,-0.2213971759344277,-0.054715686903979,-0.0473794834690374,0.0698562262865096,0.7506611448786367,9.820137585568885
1520530311.4322717,-0.2211438110517859,-0.0538443485908298,-0.046291097352775,0.0530202783051545,0.750662456118141,9.792410001457595
1520530311.4372876,-0.2218981897449022,-0.0535503457058907,-0.0473696576812564,0.0770716325642335,0.7170846510632888,9.749209315521952
1520530311.4423025,-0.221394800162874,-0.0529673797402216,-0.0473661449571798,0.0927050128326349,0.6990963271325559,9.733966818472307
1520530311.4473186,-0.2158609490520066,-0.0500557390317825,-0.0457309066406456,0.1023255545362664,0.7254766671679224,9.710604573473022
1520530311.4523344,-0.2100765479139393,-0.0480196103118161,-0.043561712511509,0.1492256953414705,0.755451525014625,9.714767418608034
1520530311.4573514,-0.2047927215024583,-0.044819597255897,-0.040841600802789,0.1432128567767008,0.7746382400890539,9.669483620247622
1520530311.4623666,-0.1969968320219626,-0.0427863230469361,-0.0373234109803168,0.16125137247101,0.7758359756129978,9.58911894222086
1520530311.4673824,-0.1856828412460224,-0.03870250916546,-0.037313290333192,0.1576436693321481,0.7590482906651113,9.569413980917911
1520530311.4723997,-0.1736096731797647,-0.030245446714762,-0.0380828612639411,0.1396051536378391,0.7194780615919555,9.559168849371572
1520530311.4774144,-0.1600326756903635,-0.0261651173198175,-0.0364536657508508,0.1071358253880823,0.7146840287173482,9.538570972076132
1520530311.4824305,-0.1446986093289335,-0.0232481799831173,-0.0353777214337005,0.1071358253880823,0.659523569240356,9.53513832981896
1520530311.4874475,-0.1291104684728048,-0.0168279739837504,-0.0367104798792177,0.0878947419808191,0.5839792211247787,9.498210672559502
1520530311.4924634,-0.1145329762239323,-0.0136097494514329,-0.0394185548495611,0.0746664971383257,0.5947725151951051,9.458816009683492
1520530311.4974775,-0.099691824082352,-0.0019441888963513,-0.0409804434855929,0.0746664971383257,0.5875776726546278,9.477417328986498
1520530311.5024946,-0.0830984879098693,0.0044764109251823,-0.0423150688241954,0.1492256953414705,0.5539959338812626,9.433725030680952
1520530311.5075104,-0.0685170791637033,0.0109013221198571,-0.0455397816479358,0.1347948827860232,0.5384082322964704,9.454799283944256
1520530311.5125277,-0.0521743440046451,0.0155633182871424,-0.0430996362325072,0.1203640702305757,0.5456041987565228,9.490959191166668
1520530311.5175436,-0.0373401937439691,0.0196419546665919,-0.0406611366480698,0.137200018211931,0.5527977300574957,9.555868365777473
1520530311.5225585,-0.0230090841574894,0.0222583724810189,-0.0363389977723291,0.1949232684337207,0.5779751832708654,9.54947124717367
1520530311.5275743,-0.0094306871046292,0.0242851699946248,-0.0295849918342825,0.2117592164150761,0.6079523826166828,9.49465737705416
1520530311.5325904,0.0036393061591885,0.0225259570355432,-0.0236705902464216,0.1865052944430432,0.6127509111695908,9.518141384966498
1520530311.5376065,0.0162107436958797,0.0216312311433754,-0.0142314893093733,0.1624539401839639,0.6355364524137272,9.581109042177111
1520530311.5426226,0.0267673566390181,0.0210431276176588,-0.0107384412106719,0.1347948827860232,0.6427334491333901,9.55347978753816
1520530311.5476377,0.0378307032795711,0.0236611792343151,-0.0074924185160089,0.1420102890637467,0.6559234318311442,9.577801717506455
1520530311.5526545,0.0496439397340398,0.0221950438180214,-0.0023850979141855,0.1660616433228259,0.6547224182084395,9.600811664801563
1520530311.5576704,0.0561799870215756,0.0201411580564954,0.0038097612893212,0.140807721350793,0.6643175084549988,9.58594024486767
1520530311.5626864,0.0632177106775493,0.0183832243197524,0.0083826347561877,0.140807721350793,0.6595209467613474,9.591755641995762
1520530311.5677035,0.072267451935896,0.017498774947086,0.0134995354846148,0.1444154244896547,0.6691137891687566,9.660277665411414
1520530311.5727184,0.0757905556419615,0.0183619235783955,0.018098950845066,0.1600488047580559,0.6966928013277128,9.679855052096856
1520530311.5777335,0.081069058128428,0.0174818248211463,0.0210584852553531,0.1299846119342071,0.6811063173224604,9.63948784152009
1520530311.5827515,0.0868501151511089,0.0168947643644089,0.0234782175126046,0.0951101482585425,0.6655202079570663,9.6886525356439
1520530311.5877674,0.0906192016255104,0.0166048566702413,0.0234689935782252,0.1143512316658059,0.6799083944785873,9.709369813846028
1520530311.5927825,0.0928754377964044,0.0134041551252336,0.0220876096508717,0.1035281222492203,0.6643204119139012,9.701355353084578
1520530311.5977974,0.0963924335178663,0.0125313799209385,0.0220744062691444,0.0902998774067269,0.7050922165695495,9.652634305093574
1520530311.6028144,0.0971403905762475,0.0081609073781702,0.0220396598196866,0.1552385339062403,0.707485439778287,9.682215636177752
1520530311.6078317,0.099146950955587,0.0043693255812893,0.0236303012998988,0.1492256953414705,0.7038884868078714,9.696223396928264
1520530311.6128454,0.1003978193222766,0.0023395957718289,0.0200953094396591,0.1504282630544244,0.6966935506074297,9.692732276044676
1520530311.6178634,0.1019034991891605,0.0002983095208254,0.0208885851905678,0.1480231276285166,0.7494559165575252,9.689217803367884
1520530311.6228795,0.1024007298003603,-0.0034887639918309,0.0205882057390992,0.2057463778503061,0.7398582974919216,9.737475361450626
1520530311.6278954,0.1024038974957653,-0.0011576877734878,0.0206059904215759,0.1708719141746417,0.6966919583880316,9.762261927338576
1520530311.6329114,0.1016477154130024,-0.0020284945666525,0.019247991855955,0.1516308307673783,0.7278711079561997,9.747310934016058
1520530311.6379275,0.1021475452698311,-0.0026045108305446,0.0168076991756821,0.1816950235912273,0.7470550132316907,9.72956743886412
1520530311.6429434,0.1011405465638306,-0.0037697143308151,0.0165301278316278,0.1841001590171351,0.7314660004073942,9.757450685062771
1520530311.6479585,0.1006337736765844,-0.0052195495676849,0.0138144868926101,0.1456179922026086,0.7302698571028483,9.7845557271547
1520530311.6529756,0.0968644676602387,-0.0049289134424494,0.0135531649310883,0.16125137247101,0.7194763757125928,9.789062661291284
1520530311.6579914,0.0940962640429719,-0.0081366831157653,0.0140749367404698,0.1901129975819047,0.7278681108373326,9.82131358528044
1520530311.6630054,0.0903263503870185,-0.0052097460546055,0.0086932505246109,0.1444154244896547,0.7542527592310704,9.812435500327393
1520530311.6680236,0.085299319217491,-0.0055009143995286,0.007888724217024,0.1552385339062403,0.7290699673997187,9.78330111208832
1520530311.6730385,0.0795177760568282,-0.0060830342073019,0.0068128290980403,0.1540359661932864,0.6942949887807102,9.805427463113151
1520530311.6780555,0.0767505878374878,-0.0072452847410251,0.0051857953373791,0.1804924558782732,0.7074834729190306,9.806319233094246
1520530311.6830714,0.0714696625253739,-0.0092841302741794,0.0040978513453048,0.2273925966834773,0.6763021691716767,9.809379570576771
1520530311.6880865,0.0639273535373331,-0.0119102731171337,0.0043623911715593,0.1901129975819047,0.678703353477405,9.872495862175318
1520530311.6931036,0.0568811303966779,-0.0194904844440515,0.0048587509969095,0.1901129975819047,0.7230715491436811,9.853858293355575
1520530311.6981194,0.05059161859873,-0.0253235501027226,0.0059081409561057,0.2370131383871088,0.7338601602157778,9.884769158865618
1520530311.7031355,0.0422962912912001,-0.0279529020365732,0.0072562645357792,0.2033412424243985,0.7446550465055023,9.89205924011762
1520530311.7081504,0.0317325902232322,-0.0343660399076318,0.0066858672445613,0.1540359661932864,0.7662434141854824,9.905301682821015
1520530311.7131665,0.0224336514470509,-0.0358302475544775,0.0080447500585583,0.1877078621559971,0.7710373534001251,9.917752847380491
1520530311.7181835,0.0138907693198757,-0.0340816457237983,0.0067212276821346,0.1877078621559971,0.7986175831386212,9.942130975616353
1520530311.7231994,0.002583513828802,-0.0317484441252207,0.0043251018487097,0.1624539401839639,0.805814392538355,9.948180485536898
1520530311.7282157,-0.0079705038008386,-0.0294127618668145,0.0011159381577671,0.1540359661932864,0.8513823842477961,9.963325857445245
1520530311.7332315,-0.0167630617195682,-0.0282550402880087,0.002764441188909,0.1672642110357798,0.8681693199159659,9.944586427807552
1520530311.7382474,-0.0273167735633395,-0.0265057692395273,0.0009035608068534,0.1660616433228259,0.8597754306120403,9.973659917094205
1520530311.7432623,-0.0378681998116134,-0.0238859867645064,0.0004020791602327,0.21296178412803,0.8321915481349251,9.941852427932409
1520530311.7482796,-0.0466617652640073,-0.0218468272931438,-0.0006482075117088,0.1816950235912273,0.8501810896451976,9.889842741370886
1520530311.7532945,-0.0541988836250525,-0.020977812670719,0.0001841011300632,0.1636565078969178,0.827398826499822,9.903986262113651
1520530311.7583106,-0.0627450628135205,-0.0206817628900974,-0.0027738120483157,0.1564411016191944,0.7818320523699205,9.909911647114797
1520530311.7633264,-0.0695281474571504,-0.0177640200371837,-0.0051738927300053,0.1420102890637467,0.7278718572359164,9.908942584103924
1520530311.7683434,-0.074806520577729,-0.01776244544822,-0.0065168210208137,0.1323897473601152,0.711084640587853,9.89394472389998
1520530311.7733605,-0.0800900843253033,-0.0212560283246354,-0.0084275181271397,0.0830844711290033,0.659525442439648,9.828232707410706
1520530311.7783766,-0.0873802515741797,-0.0206651880147413,-0.0124677254201707,0.086692174267865,0.6535294593426898,9.791014832402665
1520530311.7833917,-0.0929087787600326,-0.0194967169100121,-0.0143423864382719,0.1203640702305757,0.6427345730529652,9.804643342326605
1520530311.7884076,-0.0959279714883876,-0.0218275177327198,-0.0148956622332952,0.1624539401839639,0.6163502056391212,9.783340799639232
1520530311.7934234,-0.1007020729270305,-0.0197824123862834,-0.0175766918529853,0.2057463778503061,0.6091519913399187,9.7654942743301
1520530311.7984395,-0.1024619566545011,-0.020365870629661,-0.0175778709607052,0.1540359661932864,0.6607190569251498,9.764785166214471
1520530311.8034544,-0.106231348914772,-0.0194895517255685,-0.0189169303352128,0.1227692056564837,0.6211498581116044,9.748858070517729
1520530311.8084714,-0.10849400278827,-0.0189018413223154,-0.0210726508223616,0.1384025859248849,0.6043606746042844,9.717344388769764
1520530311.8134866,-0.108490615550921,-0.0165714935350401,-0.0207843202439837,0.1528333984803325,0.580376742216452,9.698633011610138
1520530311.8185034,-0.1079891156024646,-0.0165676544686177,-0.0221379831700325,0.158846237045102,0.5503977633313072,9.741603046115356
1520530311.8235197,-0.1059827237788445,-0.0177243921917099,-0.025126614152355,0.1913155652948588,0.5408021111249601,9.730837068717872
1520530311.8285406,-0.1079926322057015,-0.0180194780876075,-0.0240429198678891,0.1660616433228259,0.537206656713978,9.704357071973533
1520530311.8335514,-0.1047250025577937,-0.0186060662376261,-0.0221596121697268,0.1600488047580559,0.5300122824733238,9.688152597932095
1520530311.8385675,-0.0991987139133445,-0.0194744116422487,-0.0235292788171308,0.1576436693321481,0.5372073123337302,9.684682560146792
1520530311.8435946,-0.0986980568749641,-0.022687457273133,-0.0205786613471653,0.1504282630544244,0.5683855253022524,9.670776660214228
1520530311.8485994,-0.0959324525033261,-0.0226907448485813,-0.0189605199277424,0.1564411016191944,0.5959652867409255,9.698582695030613
1520530311.8536155,-0.090147921999371,-0.0215331402969004,-0.0151747196791272,0.1564411016191944,0.6151515335155314,9.714834000961687
1520530311.8586314,-0.0856205913207843,-0.0215444798563706,-0.0103132945717888,0.1323897473601152,0.6163525471382362,9.681364758078608
1520530311.8636456,-0.0815913654890428,-0.0163023536628385,-0.00865747123315,0.1251743410823915,0.633141075025804,9.690715769301422
1520530311.8686624,-0.074799612805012,-0.0125167955258802,-0.0067473513811424,0.1263769087953454,0.6223487175551234,9.675606716893396
1520530311.8736794,-0.0700192190975218,-0.0096069070462018,-0.0045696211029917,0.1456179922026086,0.6187497977254514,9.689368671458952
1520530311.8786943,-0.0629767360341786,-0.0049412694232806,-0.0048176658855365,0.1227692056564837,0.6139550155711272,9.682622881162736
1520530311.8837116,-0.0574412108995525,1.3705131547654854e-05,-0.0045195954513414,0.110743528526944,0.634341339368792,9.658315029921154
1520530311.8887265,-0.0493937559939305,0.0032169864916286,-0.0026162553863096,0.0770716325642335,0.6115602938029561,9.63425996590823
1520530311.8937426,-0.0413428667968659,0.0099212527656311,-0.0023095136729701,0.0638433877217399,0.5767862517835933,9.641395496092477
1520530311.8987594,-0.0370619461741103,0.0154548619419977,-0.000651933972293,0.0542228460181084,0.5480076309014013,9.649652208365412
1520530311.9037745,-0.0320309906430271,0.0218796739814277,-0.0052116407912294,0.040994601175615,0.5468095207375989,9.66372786077598
1520530311.9087915,-0.0264942266363994,0.0303429177608556,-0.0092156276677389,0.0313740594719833,0.5240266019724711,9.661519430764695
1520530311.9138064,-0.0229760822189922,0.0321006160439423,-0.0121848281365934,0.0734639294253716,0.5480061323419677,9.712220700990423
1520530311.9188237,-0.0174451713973235,0.0356074091351199,-0.015144423879761,0.0698562262865096,0.5072356389258239,9.671620535296524
1520530311.9238396,-0.0151873003925024,0.0362063613420048,-0.0208256420325096,0.0915024451196808,0.4844502850016166,9.684215645223002
1520530311.9288554,-0.0146837775124553,0.0373742816554631,-0.0216293208255176,0.1480231276285166,0.4988355680642351,9.746407249027804
1520530311.9338715,-0.0119213408362222,0.0350399178616716,-0.0200289640885714,0.113148663952852,0.51202882886075,9.768814568062584
1520530311.9388874,-0.0119207723864462,0.0341599368312505,-0.0178712661772903,0.1901129975819047,0.5144211154698416,9.77038739368124
1520530311.9439025,-0.0154413396295007,0.0294832942577602,-0.013030475290223,0.2754953052016353,0.4904316571440979,9.791660456590131
1520530311.9489195,-0.0166924785243591,0.0288796368555674,-0.0054573027592511,0.2213797581187075,0.5479946121663225,9.837454670059875
1520530311.9539344,-0.0191986178930137,0.0285632295476201,0.0034731559528931,0.1828975913041812,0.5887683836812272,9.777357988711634
1520530311.9589503,-0.0207076066175836,0.0247615282003419,0.0083168823097185,0.16125137247101,0.559990699398681,9.796191047136803
1520530311.9639664,-0.0237204718193907,0.0241659227821711,0.0126467711527749,0.140807721350793,0.5731828362756206,9.796377170364304
1520530311.9689825,-0.0259787779759691,0.0250319059534965,0.0153630998771579,0.0854896065549111,0.5671914425169277,9.802732169427255
1520530311.9740005,-0.0294940565517096,0.0276551736147524,0.014578004083039,0.0373868980367531,0.5635977676452729,9.824122470878
1520530311.9790154,-0.0309991209147238,0.029987115961981,0.0140574973133412,0.013335543777674,0.5600022195743262,9.83017079979537
1520530311.9840314,-0.0322574576396443,0.0305781339116721,0.0108177263495021,0.0025124343610885,0.5588039220905947,9.837250178367771
1520530311.9890475,-0.0352751488320909,0.0314620324930677,0.0067718078461683,0.0229560854813057,0.5623997511414351,9.882371298605324
1520530311.9940624,-0.0362853504911969,0.031185551196032,0.0010899878400181,0.0325766271849372,0.5959749337172787,9.852029173845224
1520530311.9990785,-0.0362914584758005,0.0294496273604274,-0.0035226309021603,0.0001072989351806,0.6235576922748189,9.833724012298486
1520530312.0040944,-0.035797913023557,0.0268455743025699,-0.01030721951402,0.0217535177683516,0.6367465510529977,9.857905481589668
1520530312.0091114,-0.0368080284387377,0.0259834102266772,-0.0149113021071844,0.0073227052129043,0.6667261855578946,9.880097443915703
1520530312.0141263,-0.0358156254056293,0.0204649803759064,-0.0214485091227815,0.0229560854813057,0.6799155126358964,9.88690527917573
1520530312.0191436,-0.0345674817183253,0.017566196002042,-0.0268839915102586,0.0470074397403847,0.6547316905449343,9.882047158354572
1520530312.0241594,-0.0348184237753197,0.0196138019792964,-0.0298439680447337,0.0277663563331216,0.6655254529150837,9.907791082196969
1520530312.0291746,-0.0360720128892639,0.0222379557404275,-0.0306332643482945,0.0578305491569703,0.6895059198842262,9.895853629459124
1520530312.0341904,-0.0348160048818034,0.0210692677536253,-0.0292917608263833,0.0818819034160491,0.720681697693669,9.910696996914956
1520530312.0392077,-0.0348187766152827,0.019029576062575,-0.0293073224235504,0.1143512316658059,0.7398654156492308,9.89757866746704
1520530312.0442224,-0.0348191373195078,0.0155183931137042,-0.0239230815292408,0.1203640702305757,0.7674451770879038,9.890520383656852
1520530312.0492394,-0.0368319938998257,0.0128915025683957,-0.0225866260313504,0.158846237045102,0.7914249884372943,9.956364640456709
1520530312.0542555,-0.0368319586421251,0.0096717041468178,-0.0172001620517312,0.1564411016191944,0.8034165799913522,9.931971334138462
1520530312.0592723,-0.0350764422922295,0.0026594970417495,-0.0099520439727273,0.1816950235912273,0.80941031524916,9.96077328011274
1520530312.0642865,-0.037597310631795,-0.0049254979650283,-0.0070291721031498,0.1780873204523654,0.7758346643734935,9.953868273055695
1520530312.0693035,-0.0373472506747081,-0.0084336687340862,-0.0027275815157165,0.1468205599155625,0.7698413974155085,9.914665556775576
1520530312.0743184,-0.0381054635533238,-0.0133955138064362,0.000212031058748,0.1251743410823915,0.7290723088988337,9.87307882297385
1520530312.0793357,-0.0406298014420326,-0.0212616953055576,-0.0006549626996013,0.1263769087953454,0.7062885471940246,9.841711448599252
1520530312.0843515,-0.0396333604100048,-0.027378919694406,-0.0012446061759904,0.1011229868233125,0.7026930927830424,9.84428505071039
1520530312.0893674,-0.0439138419488721,-0.0329139857329083,-0.002361094084865,0.1396051536378391,0.6439322149169446,9.816076331626723
1520530312.0943823,-0.0431624074770856,-0.0340763147511836,-0.0034535701795223,0.0927050128326349,0.6163556379170678,9.76658753359867
1520530312.0993996,-0.0434128712603603,-0.033786485541568,-0.0029097885791389,0.0614382522958321,0.6067649496888443,9.791306242818353
1520530312.1044154,-0.0444224182257649,-0.0355286306478818,-0.0053561732610222,0.0638433877217399,0.5623965667026389,9.782028946623983
1520530312.1094315,-0.0459335945055138,-0.0363960906523325,-0.0080655011363354,0.0698562262865096,0.5623960984028159,9.690161048958544
1520530312.1144464,-0.0471865681155883,-0.0334812807949764,-0.0085820284586854,0.0446023043144769,0.5396143972172278,9.719482671444716
1520530312.1194634,-0.045679735620628,-0.0314286150425233,-0.0131685474314671,0.0241586531942596,0.5000443554640013,9.687180214881067
1520530312.1244786,-0.0446753674858258,-0.0287911918533645,-0.0185613244747908,0.0037150020740424,0.4856562626024449,9.705987536178815
1520530312.1294944,-0.0471841687512483,-0.0229521025347708,-0.0231114757662068,0.0229560854813057,0.4472822704937995,9.700026954360888
1520530312.1345105,-0.0469300040804931,-0.0185710381348865,-0.0268662387524515,0.0758690648512796,0.4484772898787702,9.67743002740872
1520530312.1395276,-0.0471796720077855,-0.0162349613546104,-0.0287418086180121,0.0927050128326349,0.4496751190626787,9.669129979599967
1520530312.1445425,-0.0471783037698961,-0.0136052162982963,-0.0314272598092382,0.0963127159714967,0.458068821046675,9.666762391147504
1520530312.1495595,-0.048178351581217,-0.0098176112656555,-0.0313964928071282,0.0770716325642335,0.4364857919846769,9.699510750874952
1520530312.1545763,-0.0471692397675695,-0.0066105307811313,-0.0319149975536105,0.1167563670917137,0.4748551947550571,9.66770917839298
1520530312.1595905,-0.0476691519361924,-0.0039853532223075,-0.0329762399228865,0.1420102890637467,0.498836036364058,9.67441284914835
1520530312.1646066,-0.0494261816183895,-0.0045782810695665,-0.0294603223838904,0.1215666379435296,0.4976384881600433,9.68274801212638
1520530312.1696234,-0.0499248235894414,-0.0031281112237957,-0.0270133604476887,0.1492256953414705,0.5096277382149863,9.638305632175754
1520530312.1746385,-0.0494198972138044,-0.0025502442756012,-0.0251160264523036,0.1215666379435296,0.509629892394172,9.632764128702462
1520530312.1796565,-0.0499230711860195,-0.0045974171884128,-0.0224251956439157,0.1396051536378391,0.5120267683415288,9.631424070223348
1520530312.1846714,-0.0496678597917685,-0.0028541105865885,-0.0205185025840209,0.1347948827860232,0.4928408962067813,9.628003168014391
1520530312.1896875,-0.0484117145541581,-0.0019743657095267,-0.0224079882157574,0.1299846119342071,0.4784515857656852,9.678036210342515
1520530312.1947024,-0.0481569422437953,-0.0002296022455667,-0.021042386947665,0.1323897473601152,0.4940402239501233,9.648943999963938
1520530312.1997204,-0.0486529065895552,0.0009189850379618,-0.0148100055541557,0.1504282630544244,0.4988353807443059,9.662709474211177
1520530312.2047365,-0.0473978238039648,-0.0014174263512153,-0.0126657566857791,0.140807721350793,0.4568662152045721,9.705843367842432
1520530312.2097504,-0.0453853671177036,-0.0005453988492744,-0.011580637632416,0.1119460962398979,0.4904443948992828,9.68052438070485
1520530312.2147665,-0.0448784178104759,0.001196549345956,-0.00913331950399,0.1444154244896547,0.4808487426929358,9.686028418666435
1520530312.2197835,-0.0436178817339832,0.0020617256016616,-0.0056118872177018,0.0951101482585425,0.436484387085208,9.663308712447767
1520530312.2248006,-0.0436129537708943,0.005850452887537,-0.0058535330045784,0.0686536585735557,0.4244950433703003,9.67868578848649
1520530312.2298155,-0.0395854411527431,0.010805565140183,-0.0058232081266566,0.0530202783051545,0.4185005588327757,9.67884380091628
1520530312.2348316,-0.0375659473278772,0.0160447183961782,-0.0033520133141435,0.0301714917590294,0.381328985246304,9.689561742093092
1520530312.2398474,-0.0355490017624154,0.0207069300461301,-0.0030496318394594,0.0578305491569703,0.3957165161480728,9.669522046502566
1520530312.2448626,-0.036052563832294,0.021295329638175,-0.0052086193895074,0.0746664971383257,0.4208971538002388,9.63446930096178
1520530312.2498806,-0.0342910492030273,0.0242149631173703,-0.0070834768706194,0.0770716325642335,0.4161004047866581,9.626315560526397
1520530312.2548945,-0.0302633601648946,0.029462188328377,-0.0073214748032892,0.0662485231476479,0.4137029668795137,9.6426932600718
1520530312.2599125,-0.025989696222688,0.0306294001817572,-0.0073205167576633,0.0662485231476479,0.4149021073029266,9.619449211648163
1520530312.2649264,-0.0234794757331514,0.0300541715621985,-0.0097645432241068,0.0470074397403847,0.4220984484028373,9.616143044652832
1520530312.2699444,-0.0217231046767867,0.0306492847026609,-0.0140920984508066,0.0662485231476479,0.4256943711136424,9.624087263411797
1520530312.2749584,-0.0192124882253245,0.0303654406103951,-0.0165339018319405,0.1023255545362664,0.4352846847020075,9.602808165829066
1520530312.2799764,-0.0149413764746531,0.0294922323416573,-0.0162779594875805,0.1047306899621745,0.4352844973820783,9.600460467807777
1520530312.2849915,-0.0121799081422528,0.0262829865349193,-0.0144137261106618,0.113148663952852,0.446076105573042,9.627097319306582
1520530312.2900074,-0.0084139423091625,0.0248326397490548,-0.0163256636575882,0.1347948827860232,0.4220916112254219,9.604829279945738
1520530312.2950225,-0.0053988856200452,0.0239574823404729,-0.0155262959050691,0.1420102890637467,0.4352815939231759,9.618691914326066
1520530312.3000395,-0.0051500096166041,0.021038636505611,-0.0136551722101277,0.0951101482585425,0.4724585997875941,9.616787874101512
1520530312.3050554,-0.0003755945278297,0.0213340769813993,-0.0144734545546769,0.1095409608139903,0.4424789652826972,9.619000934814077
1520530312.3100724,0.0031448394172058,0.0254257652071004,-0.0185070539246597,0.1275794765082993,0.4676595092748986,9.640881537973602
1520530312.3150864,0.0054104884982583,0.0283404965799044,-0.0184890235810057,0.0878947419808191,0.4592686170898401,9.636627414393542
1520530312.3201044,0.0076708175864274,0.0286385946556149,-0.0206553681723478,0.1143512316658059,0.4676605395345091,9.652631733136484
1520530312.3251195,0.0129484458372485,0.0292248881387116,-0.0212018149822289,0.1347948827860232,0.4988365983238456,9.667510215761594
1520530312.3301356,0.0137001860949043,0.0274761479105115,-0.0209460077679991,0.1564411016191944,0.4928392103274185,9.688223962618114
1520530312.3351524,0.0157075893843198,0.0269014508109372,-0.0236596466838012,0.137200018211931,0.5156243769316966,9.682578306304094
1520530312.3401666,0.0162045102775192,0.022237309992131,-0.0228845118075935,0.1420102890637467,0.4784506491660393,9.672108440007158
1520530312.3451824,0.0159524155924484,0.0201909639659288,-0.0204646936183782,0.1143512316658059,0.4748553820749863,9.692137611544435
1520530312.3502004,0.0159472680874154,0.0164029651111212,-0.0204935937274029,0.0878947419808191,0.4808531447112718,9.704010715631757
1520530312.3552155,0.0182096632291378,0.0175723030444391,-0.0215710854792113,0.089097309693773,0.4712599276640042,9.748169835549657
1520530312.3602324,0.0192136275377522,0.0169913846741557,-0.0221184903347183,0.089097309693773,0.4688616468171784,9.753982893999249
1520530312.3652463,0.0187082150241333,0.0152443374614506,-0.0226719871918356,0.0794767679901413,0.4628666939798309,9.752920237192688
1520530312.3702636,0.0207169747550451,0.0129089498699663,-0.0207996843891742,0.0818819034160491,0.459269085389663,9.778467502090406
1520530312.3752794,0.0194568738303095,0.0105788382360504,-0.0213562272470968,0.1263769087953454,0.4520707774304958,9.782690006855008
1520530312.3802965,0.0186984492740118,0.0085446786269176,-0.0235347558416598,0.0951101482585425,0.4760560210578327,9.72602589778036
1520530312.3853126,0.0199541083736404,0.0082552432394687,-0.0240804043351285,0.0590331168699242,0.4604700053524032,9.747310842059338
1520530312.3903284,0.0197026801786641,0.0091336689522125,-0.0256965437313358,0.0927050128326349,0.4820519104948262,9.802744962175426
1520530312.3953424,0.0197001319192599,0.0085567273461692,-0.0278653570691648,0.0927050128326349,0.4964415955757807,9.769028755432076
1520530312.4003594,0.0207011559386757,0.0085709613586243,-0.0330075959843735,0.0758690648512796,0.5228239961303682,9.776139764483863
1520530312.4053764,0.0199425549623965,0.0062446887911307,-0.0349178017683449,0.0951101482585425,0.5276190592645862,9.794542109491552
1520530312.4103923,0.0234529565612728,0.0024668094867204,-0.0381997867539828,0.1191615025176218,0.5444051519930745,9.827993812285886
1520530312.4154074,0.0244485664796178,-0.0024768640512104,-0.0417565427440471,0.1696693464616878,0.5623883246257545,9.814701076330826
1520530312.4204245,0.0204209636854103,-0.0083097720410742,-0.0404408073983915,0.1877078621559971,0.5563912176092213,9.852882097669914
1520530312.4254394,0.0229215046687506,-0.0161703422740229,-0.0426698651016735,0.1480231276285166,0.5623900105051172,9.834668214568223
1520530312.4304564,0.0231684910386199,-0.0196683150081315,-0.0421559170568574,0.1744796173135034,0.5503965457517674,9.816990237406058
1520530312.4354725,0.0244227348462654,-0.0237581325785407,-0.0381311854290297,0.1708719141746417,0.5084269119122108,9.822876999220169
1520530312.4404886,0.0256744735164693,-0.0287177331444216,-0.0357363984325382,0.1925181330078127,0.5360054557713441,9.837747284806603
1520530312.4455023,0.027681606277716,-0.031925817455649,-0.0344118566776081,0.1576436693321481,0.51202536344206,9.843920837999054
1520530312.4505196,0.0276734204431659,-0.0389234166970852,-0.0328419353496308,0.16125137247101,0.4976353973812116,9.867142633985155
1520530312.4555354,0.0291758424385886,-0.0441735749036496,-0.0307203840576215,0.185302726730089,0.5120232092628743,9.836678757975935
1520530312.4605525,0.0284234356908383,-0.0453496064143955,-0.0269402336864286,0.1961258361466746,0.5084249450529542,9.852846935844916
1520530312.4655664,0.0266655709628273,-0.0462324619268118,-0.0239676310245446,0.2237848935446154,0.5240116163781359,9.875805397221248
1520530312.4705834,0.0286735818918504,-0.0494434599623104,-0.0215609056860095,0.2045438101373522,0.5300088170546338,9.885283983061573
1520530312.4755995,0.0286741072196639,-0.050030599603303,-0.0199420764812213,0.2418234092389248,0.5264084923254927,9.884924634330106
1520530312.4806166,0.0279209987241186,-0.050911604431417,-0.017512432504225,0.2562542217943722,0.5383987726400463,9.913826079115973
1520530312.4856317,0.0279230216557093,-0.049747523184381,-0.0169624483711842,0.21296178412803,0.553990969903139,9.90493510810332
1520530312.4906485,0.0239001743367403,-0.0506203383306554,-0.0180438336383767,0.2033412424243985,0.5671822638403974,9.901529453960324
1520530312.4956625,0.0249035662634477,-0.0517847541865924,-0.0183251387686016,0.2033412424243985,0.5731779659574617,9.92592863030268
1520530312.5006804,0.0236502398134102,-0.0494541702459577,-0.0183050204697683,0.2165694872668919,0.5455967059593552,9.935123921118487
1520530312.5056963,0.0208869680913633,-0.0474097341173235,-0.0204486920838265,0.20694894556326,0.5360043318517689,9.934064772329672
1520530312.5107124,0.0183801818932695,-0.0433335205838433,-0.0196012639690754,0.2081515132762141,0.5647836083537132,9.92705213940594
1520530312.5157266,0.0143636660329793,-0.0410076618095061,-0.0182232822347514,0.2009361069984905,0.553991906502785,9.941078621248376
1520530312.5207434,0.0131091085752024,-0.0392583900613216,-0.0187487018983397,0.1901129975819047,0.5180185367400801,9.933084039254169
1520530312.5257597,0.0095943553272753,-0.0372222620410583,-0.0179149684876704,0.2021386747114444,0.4916365108253511,9.896966251572604
1520530312.5307755,0.0083423461289025,-0.0348960486868305,-0.0162715748134297,0.2009361069984905,0.4964331661789671,9.920216158356416
1520530312.5357914,0.0038240715883803,-0.0308169806423447,-0.0167731423920142,0.2045438101373522,0.4784457788478803,9.913225719550567
1520530312.5408075,0.0005590333218392,-0.0299462922757113,-0.0159487680458546,0.2177720549798458,0.4832413102819212,9.895660127259594
1520530312.5458224,-0.001951449831604,-0.0290774938356563,-0.0143141561818052,0.2249874612575695,0.4964312929796752,9.92230634513633
1520530312.5508394,-0.0011971142604503,-0.0290786553311669,-0.0137744645598167,0.2706850343498195,0.4892328913605434,9.902112121805905
1520530312.5558565,-0.0032069756332136,-0.0282031041004182,-0.0145756992054211,0.2285951643964312,0.4652533609910468,9.895572321840502
1520530312.5608714,-0.0057192151222098,-0.0273284782118208,-0.0151054545085815,0.2201771904057534,0.4952325271961207,9.882841440257836
1520530312.5658865,-0.0092405624927224,-0.0281974542916727,-0.0175405027018229,0.2081515132762141,0.4604583915167934,9.909721712607377
1520530312.5709035,-0.0107508606046948,-0.0290678280203946,-0.0191676469935311,0.20694894556326,0.479644731951364,9.882985397288769
1520530312.5759206,-0.0120090679637275,-0.0293553342389891,-0.0207908118378915,0.209354080989168,0.4880385275953249,9.8666837864421
1520530312.5809357,-0.0132656012990015,-0.0275995066111943,-0.0237511445645909,0.1937207007207666,0.4976328685621676,9.914474499584626
1520530312.5859523,-0.0172867314722491,-0.0267218293005079,-0.0256308290076297,0.2406208415259707,0.4952309349767226,9.945398227826418
1520530312.5909674,-0.0197980967255999,-0.0273135956522564,-0.0226546030906221,0.2021386747114444,0.4844416682848739,9.891162547837007
1520530312.5959835,-0.0213064620820379,-0.0278976838711601,-0.0223857030257121,0.2406208415259707,0.4928326541298969,9.897752664381931
1520530312.6009994,-0.0245709279666719,-0.0264434980188731,-0.0218274284048345,0.2646721957850499,0.4952290617774307,9.889381216895377
1520530312.6060154,-0.0238123740444863,-0.0252878625780258,-0.0180322936907929,0.2454311123777866,0.507221964570993,9.905826819764767
1520530312.6110325,-0.0285861775615221,-0.0267561254736637,-0.0145174447284697,0.2682798989239117,0.4928304999507112,9.866105561320214
1520530312.6160474,-0.0316031317484732,-0.0293870519964779,-0.0118263928579878,0.2466336800907407,0.5000270283705511,9.902335698881185
1520530312.6210625,-0.034617094660001,-0.0299790152593098,-0.0088492334944376,0.2706850343498195,0.5120165594053879,9.910224912039691
1520530312.6260805,-0.0353710852554537,-0.0323205848792272,-0.0050779754644831,0.2346080029612012,0.5156167904745644,9.853627501957996
1520530312.6310964,-0.0391407049219309,-0.0343704945762164,-0.0018399854617656,0.2526465186555102,0.5407973344667658,9.809265899727032
1520530312.6361125,-0.0431569189284828,-0.0340945255278787,0.0033100772180084,0.2682798989239117,0.5108176063019043,9.848655861918182
1520530312.6411283,-0.0436547219215897,-0.0308909495008759,0.003876556394759,0.2514439509425563,0.526407743045776,9.805805204991795
1520530312.6461425,-0.046667669435191,-0.0294373936241151,0.0047049101882665,0.2249874612575695,0.5348037865288872,9.803730242949989
1520530312.6511605,-0.0491796462602805,-0.0288563375560139,0.0049845694875001,0.2189746226927997,0.5276094122882329,9.81541722380981
1520530312.6561766,-0.0506895092204957,-0.0311916466629462,0.0063223146241575,0.2261900289705234,0.5312062715986839,9.80604633381975
1520530312.6611917,-0.0519420045568504,-0.0300346135732289,0.009309545436666,0.2442285446648326,0.5707765006718397,9.784913578602172
1520530312.6662085,-0.0531894386320973,-0.024503898849847,0.0112479389452134,0.2261900289705234,0.5240114290582067,9.765378311457578
1520530312.6712244,-0.0529336979779018,-0.0218842533729406,0.0123496635733333,0.20694894556326,0.5192163659239888,9.76092169390052
1520530312.6762404,-0.0549355969901902,-0.0154738529857626,0.0121317593404136,0.2285951643964312,0.5084224162339102,9.77815368625138
1520530312.6812556,-0.0534200180751659,-0.0102305260544439,0.0129806122240619,0.2346080029612012,0.5084219479340872,9.75136585002221
1520530312.6862714,-0.0531606706416773,-0.00528126122133,0.014641213326461,0.2081515132762141,0.4796446382913994,9.709814243053692
1520530312.6912875,-0.0516466324523928,-0.0014963137886113,0.0160200425753639,0.2225823258316615,0.4616564080206312,9.720150618053294
1520530312.6963034,-0.0511349747240203,0.0040350901235622,0.017955169021012,0.2466336800907407,0.4328751646594304,9.675783110806432
