Time,angular_velocity.x,angular_velocity.y,angular_velocity.z,linear_acceleration.x,linear_acceleration.y,linear_acceleration.z
1520621014.560424,-0.1589741200166755,-0.038342401765154,0.0492163698590614,0.2177720549798458,0.151079412996556,9.86111971560518
1520621014.56544,-0.1725244626233036,-0.025241970515835,0.0517765248177552,0.1877078621559971,0.093523014171853,9.819631287947931
1520621014.570456,-0.1840667511789461,-0.0156453786914432,0.057282273821477,0.2153669195539378,0.0407586813625011,9.712496278788953
1520621014.575472,-0.1920933573326603,-0.0054537129688649,0.058727746431501,0.1672642110357798,-0.0012074870583655,9.67697894533895
1520621014.580488,-0.1991145055061139,0.0044447767553837,0.0609807667508339,0.0854896065549111,-0.0311796287660949,9.713830585237972
1520621014.585502,-0.2058906471193263,0.0093883711090594,0.0637366196884348,0.0674510908606018,-0.050364470641232,9.694268423290636
1520621014.590517,-0.209406008006861,0.0140608000652469,0.059449988844767,0.0181458146294897,-0.1175124942938043,9.750596723404612
1520621014.595535,-0.2101536514151107,0.0207718184302398,0.0559854233299855,0.0037150020740424,-0.1702735490043955,9.774031514093096
1520621014.600548,-0.2144230381557987,0.0263224761880879,0.050083586536653,-0.0275517584627602,-0.1942539223135734,9.790629247704242
1520621014.605564,-0.2139199073055462,0.0286624904903281,0.0468538870217723,-0.0155260813332205,-0.1810643142556778,9.823039365126366
1520621014.610581,-0.2114036140891065,0.0330429841279519,0.0436360153178881,-0.0708441961291024,-0.1990471122484994,9.857297512483076
1520621014.615596,-0.2111512959299606,0.036552080239161,0.0390629453880109,-0.0840724409715958,-0.2146349074932563,9.827225726704311
1520621014.620612,-0.2086404991263859,0.0380238276213306,0.0339290215597222,-0.0828698732586419,-0.2242281245405237,9.863249838942677
1520621014.625627,-0.204627107839538,0.0330740512392218,0.0330721238494144,-0.0107158104814049,-0.2086449186340322,9.86718090996373
1520621014.6306438,-0.1973433582932656,0.0298702197875732,0.033575226727943,-0.0155260813332205,-0.1930557184898066,9.831186066198397
1520621014.635658,-0.1877990130627864,0.0281343951072134,0.0302976019809605,-0.0323620293145758,-0.1402922286201359,9.72554338622744
1520621014.640674,-0.1792563034234617,0.0275571588342483,0.0294656495314128,-0.0203363521850366,-0.0983232504003314,9.732358272514752
1520621014.645689,-0.1676993721408335,0.0258148374875439,0.028889749957272,-0.0347671647404839,-0.1115126711382976,9.695322989388604
1520621014.650704,-0.1579001213019727,0.0264087306189334,0.0261705349612973,-0.0239440553238983,-0.1342971821228237,9.730104179953084
1520621014.655721,-0.1450876171636412,0.0249626566636372,0.0239712494807022,-0.0347671647404839,-0.1450886029938581,9.680247859482746
1520621014.6607358,-0.134288142093478,0.0220610577207465,0.020952944672026,-0.0107158104814049,-0.1307007911121955,9.669540430695251
1520621014.665751,-0.1204777894953978,0.0153711845274128,0.0184412308668717,0.0458048720274308,-0.1199129293198156,9.610872571279014
1520621014.670766,-0.1081782211472719,0.0066417573408466,0.015646209908277,0.0494125751662926,-0.1498917208850312,9.60738025772832
1520621014.675783,-0.0933597721334706,0.0011134454924443,0.0147647969266832,0.1059332576751284,-0.1546926845970188,9.570808334852492
1520621014.680799,-0.0790492838926923,-0.0067388551747062,0.0111610737501431,0.158846237045102,-0.1846753162207828,9.52499893163643
1520621014.685814,-0.0614672534388437,-0.0134345358455927,0.0113478180549313,0.1239717733694376,-0.1774777575413322,9.514872066649325
1520621014.69083,-0.047144678594746,-0.0169364646732486,0.0153527262432695,0.1384025859248849,-0.1798771623077331,9.520544664421804
1520621014.695844,-0.0290535386719291,-0.0186776830380048,0.0153057836558768,0.1528333984803325,-0.1942679713082626,9.453013886470972
1520621014.70086,-0.009200143182219,-0.0195506145117009,0.0176971563246248,0.1552385339062403,-0.1822767543940633,9.442519487377652
1520621014.705876,0.0078881732636665,-0.0210073980509412,0.0200892167787382,0.1480231276285166,-0.1798779115874498,9.422830931815986
1520621014.710891,0.0262284989079249,-0.0247903949444094,0.0208378835586108,0.1335923150730691,-0.1474999962357271,9.434561259875553
1520621014.715908,0.0450784593489651,-0.0242060691727399,0.0229716926510908,0.0782742002771874,-0.1522922495710073,9.47345512031739
1520621014.720924,0.0616623355571956,-0.0250715393956641,0.0221225819715511,0.0818819034160491,-0.1498942497040752,9.455985507156326
1520621014.7259378,0.0792587029521605,-0.0233265383789383,0.0258908923970334,0.0698562262865096,-0.1379019088703007,9.487468751092006
1520621014.730953,0.0943424388283347,-0.0195348174848332,0.0267034267974825,0.0542228460181084,-0.1379006912907611,9.517836659635243
1520621014.7359688,0.1074175012175224,-0.0139933917781008,0.026721395808256,0.0698562262865096,-0.1414993301405392,9.524660865644767
1520621014.740985,0.1192370378051004,-0.0075775763361304,0.0264778217954136,0.0566279814440162,-0.1690785296194248,9.580599425870718
1520621014.746,0.1315619006623721,0.001170969097402,0.0257100072267028,0.0073227052129043,-0.1570832853267477,9.62871554191468
1520621014.751015,0.1378491268648226,0.0061335233295335,0.0233012185320717,0.0241586531942596,-0.1690760008003807,9.672724834777537
1520621014.756031,0.1453944702502494,0.0105057880430417,0.0238616549053784,0.0963127159714967,-0.1738781820919079,9.687135080153809
1520621014.761047,0.154195335505155,0.0125401845052371,0.027107431938864,0.0806793357030952,-0.1546907177377623,9.69424140018467
1520621014.766063,0.1577125429042988,0.0087397238377248,0.0322123697261643,0.0542228460181084,-0.1786714656867987,9.724738041020736
1520621014.771077,0.1604752853664012,0.0058189488340085,0.0351610097719975,0.0530202783051545,-0.1738748103331825,9.75496081152986
1520621014.776093,0.1614728241081495,-0.0003019177101788,0.0359240957751145,0.034981762610845,-0.1906613713614937,9.773747061393257
1520621014.781108,0.1604591332392452,-0.0081769780799316,0.0385713983238533,0.0301714917590294,-0.1738730307938553,9.786561094365878
1520621014.786124,0.1604569652132425,-0.0143164492229809,0.0460999986175864,-0.0491979772959312,-0.1522823216147601,9.78150186021242
1520621014.7911398,0.1629648922430195,-0.0186891463012286,0.0471441686888344,-0.0852750086845499,-0.1618726352031254,9.794645950115616
1520621014.796156,0.163212317696777,-0.0221885758974728,0.0481992085254529,-0.0985032535270433,-0.1834561325649464,9.754120715445133
1520621014.80117,0.1606996351917615,-0.0227759716628145,0.0495521590670531,-0.1021109566659053,-0.1846549920084657,9.777399879038043
1520621014.806187,0.160950232273055,-0.0224808465246409,0.0482011859495852,-0.105718659804767,-0.1798581493349202,9.791376044300954
1520621014.811202,0.1604536642198186,-0.0172324797891132,0.0468894054521943,-0.132175149489754,-0.1798560888156991,9.828822162077342
1520621014.816218,0.1566872632349711,-0.0143171976250383,0.045836453570755,-0.1021109566659053,-0.1666678856572725,9.842462400385568
1520621014.821234,0.152918353180551,-0.0137351769725099,0.0455773546945428,-0.1273648786379382,-0.1246960039785656,9.876369454369136
1520621014.826248,0.1493974017719641,-0.014312768525069,0.043144529586611,-0.0744518992679643,-0.1438863717916136,9.910737459940949
1520621014.831264,0.1398431183035129,-0.0181052371215283,0.0434039108577978,-0.0107158104814049,-0.117510246454654,9.918226374166396
1520621014.83628,0.1363170154577618,-0.0239343060449697,0.0433659832774045,0.0325766271849372,-0.083937686357819,9.961933720896386
1520621014.841296,0.1300231049566695,-0.032679760114434,0.0438520505917024,0.0229560854813057,-0.0707463924205607,9.996878817242624
1520621014.846312,0.1207110171251488,-0.0417104958670134,0.0416360365409342,0.0686536585735557,-0.0467671430309579,9.99757278226765
1520621014.851326,0.1106453346601008,-0.0527914167122173,0.0431935036054301,0.0433997366015228,-0.0359729123609856,9.93621443482574
1520621014.8563418,0.1063668760528242,-0.0571624015036837,0.0426269998295962,0.0806793357030952,-0.016789569045282,9.85913136767007
1520621014.861358,0.1005806244710166,-0.0615339770284001,0.0420632963933903,0.1191615025176218,-0.026385689551452,9.839009713356702
1520621014.866374,0.095553236529395,-0.0638728498061193,0.0442192133435499,0.1889104298689508,-0.0072048750547926,9.773232049219711
1520621014.871388,0.0897749433759314,-0.0641730546904812,0.0466626379565918,0.1937207007207666,0.0239724013140835,9.753398378951792
1520621014.876404,0.0870135573553253,-0.0630129701786749,0.0482999396292221,0.16125137247101,0.0743388279164682,9.710665976920708
1520621014.881419,0.0842494897772961,-0.0630147816207012,0.0485756194811078,0.2045438101373522,0.1019156858962388,9.741595586850536
1520621014.886436,0.0792296721663548,-0.0586467112532093,0.0488888461220793,0.2310002998223392,0.1019136253770177,9.728554492112748
1520621014.89145,0.0789834385305052,-0.0528096495590117,0.0454166779048264,0.2117592164150761,0.0839280175852582,9.61022062977396
1520621014.896466,0.0794909288940705,-0.0458009269404751,0.0397876346917879,0.1865052944430432,0.0851291248679275,9.594195251260595
1520621014.901481,0.0767393204199791,-0.0335507480459117,0.035016312104553,0.1444154244896547,0.1115134922817715,9.566687747870764
1520621014.906498,0.0739914128333681,-0.0166296755418484,0.0270340081314566,0.16125137247101,0.1055164789252028,9.56304329191439
1520621014.911514,0.0719946731225059,-0.0020408407516388,0.0195736110978721,0.1973284038596285,0.1103102308199165,9.56152531891038
1520621014.916529,0.0692489648874671,0.0163364259578211,0.0118729684472249,0.2021386747114444,0.1378900859185541,9.52774942920958
1520621014.921545,0.0629846339613013,0.0347137711518331,0.0036377681305737,0.2009361069984905,0.1354918987316929,9.528925616898723
1520621014.92656,0.0582258025499069,0.0492942386204061,-0.0011120359880139,0.1985309715725824,0.1282972435111449,9.577766089124278
1520621014.931575,0.0491880695152166,0.0580416996435738,-0.0045456380376747,0.263469628072096,0.1210973433325796,9.622464646327304
1520621014.936591,0.0411556611627681,0.0659110303206226,-0.0063645008609422,0.3308134199975172,0.0935118686360662,9.675294679864251
1520621014.941607,0.0316115864604577,0.0702802422126354,-0.0071250567846919,0.3512570711177343,0.1019042593805582,9.720411122744803
1520621014.946622,0.0203127324137472,0.0781468361055068,-0.0083967604136297,0.35606734196955,0.1234884123621314,9.697100375328224
1520621014.951637,0.0085141347541332,0.0860037634834133,-0.0061504339493089,0.3584724773954579,0.0923105740334677,9.730809542708217
1520621014.9566529,-0.0047906289103466,0.0947327968478128,-0.003353546097629,0.3440416648400106,0.0815194341423269,9.746068398843429
1520621014.961668,-0.0170913420222867,0.1022952290630718,-2.6325688470236336e-05,0.4318291078856491,0.0683220523073699,9.794036838533255
1520621014.966684,-0.0329127987972629,0.1048889057464798,0.0084100084183474,0.4835395195426689,0.0887034121269111,9.836512968645792
1520621014.971701,-0.0467270796890298,0.103981656729232,0.0187097529865881,0.4943626289592545,0.0707154628360367,9.814344428096538
1520621014.976716,-0.0618008891236251,0.1013277935637218,0.0281868549716242,0.4835395195426689,0.1066905184781042,9.83184685274017
1520621014.98173,-0.0736115969793449,0.0960534780056853,0.0373673358904456,0.4258162693208793,0.1210846992373593,9.826583943606538
1520621014.986747,-0.0869279847019486,0.0928204486986524,0.0457545410583584,0.4366393787374648,0.1078933116401363,9.840437188281076
1520621014.991762,-0.0994893311734726,0.0907547097295516,0.053608146605893,0.4017649150618003,0.0983029043918066,9.888433891754422
1520621014.996778,-0.1125525696232475,0.0898572256828103,0.0603893943576037,0.3452442325529645,0.1067012893740326,9.864570820993109
1520621015.001792,-0.1213446532003885,0.0877936919779027,0.0679654531601674,0.3272057168586553,0.1174949580842174,9.800817955304204
1520621015.006808,-0.1306398166415572,0.0860242596134757,0.0744624849109783,0.2983440917477604,0.1222937676170192,9.83363423001957
1520621015.011824,-0.1381758451571439,0.0839626750484121,0.0814951183053828,0.3199903105809315,0.164261996557107,9.829896180267502
1520621015.01684,-0.1414405855020777,0.0813199951729712,0.0885153712335558,0.3344211231363789,0.143875485439513,9.770506256692457
1520621015.0218558,-0.1454531966614675,0.0824621050614417,0.0966481080241722,0.2887235500441287,0.1702601338332508,9.758141739876752
1520621015.02687,-0.1479574855863819,0.0844811445582443,0.1039730760433858,0.2706850343498195,0.1366856068771593,9.730458602320878
1520621015.031886,-0.1507187892951939,0.0835920677751188,0.109111912765565,0.2418234092389248,0.0875230973563819,9.723814602859033
1520621015.036902,-0.1492111335508129,0.081544225644505,0.1123401015795847,0.2839132791923129,0.0755284150234923,9.723416619276607
1520621015.041918,-0.1492115844310943,0.0771552469584165,0.1190704026974717,0.282710711479359,0.1390829511243391,9.689664174680445
1520621015.046933,-0.1477097034920092,0.0666383143285459,0.1292683153309455,0.2237848935446154,0.1666677702011003,9.725075146269164
1520621015.0519469,-0.1391658687495255,0.0599106804465143,0.1400231516136493,0.2249874612575695,0.145083148919704,9.7413545046783
1520621015.056964,-0.1316268804155637,0.0523034001429628,0.1526670068048183,0.1901129975819047,0.0983193885455753,9.799846753256354
1520621015.06198,-0.1263480760753589,0.049373411659714,0.1593986221605556,0.1251743410823915,0.0599519526344516,9.772624790258105
1520621015.066996,-0.1170459735359037,0.0517052170088282,0.1604813216655983,0.0337791948978911,0.0323788410532648,9.75146053421908
1520621015.07201,-0.1110088230190644,0.0543220279457187,0.1634661329297864,-0.005905539629589,-0.0419647744195015,9.718217125442274
1520621015.077026,-0.1057213858961592,0.0613151388739199,0.1643213234762225,-0.1069212275177211,-0.139087281278918,9.641431421728624
1520621015.082041,-0.0933948019610351,0.0732776552804879,0.1603314120951024,-0.1634419100265567,-0.1942433387375741,9.623441045718636
1520621015.087056,-0.0833285823717805,0.0881618720329234,0.1531213813257053,-0.2271779988131161,-0.2601910980471585,9.552072802206377
1520621015.092073,-0.0732592382090837,0.1056700063931305,0.1453902665322919,-0.2163548893965305,-0.3573223152832824,9.549737885269325
1520621015.097089,-0.0631991815227885,0.1147207051511656,0.1403001412239129,-0.1814804257208659,-0.3813078398905132,9.565691840777024
1520621015.102103,-0.0533935051170616,0.120854546456459,0.1362704353693143,-0.1538213683229252,-0.3813099940696989,9.541017601440618
1520621015.10712,-0.0425896744657166,0.1211581773137902,0.1332765844990435,-0.1357828526286157,-0.3885062415096449,9.619874830516624
1520621015.112134,-0.0337981280127823,0.1194184151114663,0.1313530894013811,-0.1093263629436287,-0.3717203361010859,9.626573812251063
1520621015.117151,-0.0192277630785709,0.1173917181525117,0.1286049988954651,-0.1261623109249841,-0.3933035524830133,9.613975147651116
1520621015.122166,-0.0109366972440355,0.1191571145394329,0.1234625635172456,-0.177872722582004,-0.3861046825640585,9.628417176492576
1520621015.127182,-0.0003875879168285,0.1203500975755249,0.114794384812249,-0.2476216499333334,-0.3932940928265891,9.595400911128444
1520621015.132197,0.0121686149817934,0.1200913162058928,0.1044880815191266,-0.2259754311001622,-0.4052871829400806,9.674227702392168
1520621015.137213,0.0222130645294012,0.1218763409893687,0.0923081857845758,-0.2416088113685635,-0.4172773695946695,9.687175145014615
1520621015.1422288,0.030498379151427,0.1239535179734814,0.0795926884064314,-0.2897115198867215,-0.4448538529345818,9.702778113479258
1520621015.147244,0.0372757243789403,0.1257379912659832,0.0671483141785066,-0.3462322023955573,-0.4628365572674389,9.70218364726582
1520621015.152258,0.0458078920728165,0.1237322411681981,0.0557539563622628,-0.3774989629323599,-0.5036048965043971,9.675798425320352
1520621015.157275,0.0505657826652955,0.1185212412992015,0.0438010536648809,-0.3546501763862348,-0.5239920632417432,9.703487362916755
1520621015.162291,0.0565766429357179,0.1089319530567741,0.0347884759264122,-0.3618655826639585,-0.5048052545073496,9.760483937584056
1520621015.167307,0.0623321114597768,0.0958437667380869,0.0265613255752034,-0.3931323432007612,-0.4496423598712781,9.79095022225535
1520621015.172322,0.0678394488501521,0.0850865581822012,0.0183524266297426,-0.403955452617347,-0.4232604276165135,9.770111251123751
1520621015.177337,0.0723428689860067,0.0760809051232452,0.0088060036097185,-0.4256016714505179,-0.4160638991966736,9.770314926103929
1520621015.1823518,0.0791086803314525,0.0667811114815323,0.0006058864744491,-0.4616787028391365,-0.3656971916143952,9.765968389731352
1520621015.1873689,0.0846119287366838,0.0539885818210032,-0.0092418494435861,-0.4075631557562087,-0.3788919509703434,9.807291707275803
1520621015.192384,0.0911210781381951,0.0423648978160836,-0.0201647434970733,-0.4268042391634719,-0.3668990481767814,9.823737310145196
1520621015.1974,0.0963766384257621,0.033365367572295,-0.0318769338541212,-0.3979426140525772,-0.3657021555925187,9.839725234810784
1520621015.202414,0.0998699784041364,0.0202777520158683,-0.0406409754876906,-0.3654732858028204,-0.3728995269520401,9.887064116445757
1520621015.20743,0.1056238630804928,0.0060240275880096,-0.0488770181801377,-0.2873063844608137,-0.3621133510390228,9.922319226305593
1520621015.212446,0.1096180404493601,-0.0085210421248659,-0.0573825627908964,-0.2079369154058528,-0.306959073119694,9.974951524870052
1520621015.2174609,0.1025463973658023,-0.0312372233875222,-0.0629538131114719,-0.1213520400731684,-0.2482079358899142,10.07632013115541
1520621015.222478,0.0977387685293698,-0.0548383270292671,-0.0642071988629984,-0.0347671647404839,-0.2410198368668877,10.138226124585051
1520621015.227492,0.0911629838869914,-0.0854348053769686,-0.0649695798072532,0.0229560854813057,-0.2098466815364538,10.139958166964538
1520621015.232507,0.0828307498085851,-0.1131137570541262,-0.0673297382109203,0.0361843303237991,-0.2254365373004316,10.060818823867194
1520621015.237524,0.0795284088092419,-0.1375840529580928,-0.0702158689334108,0.0397920334626609,-0.2026531502354809,9.935249944196508
1520621015.242539,0.0784888197237152,-0.1588373064959453,-0.0771399346654563,0.0758690648512796,-0.1918636962237029,9.880267502602171
1520621015.2475538,0.079212148763045,-0.1777609799198664,-0.0832378450902205,0.1083383931010362,-0.1714808378447281,9.883418019174076
1520621015.252569,0.0832058360617994,-0.1949387084133272,-0.0879757549261483,0.1552385339062403,-0.109129188565878,9.831766382346828
1520621015.257586,0.0904762170107881,-0.2057083395396417,-0.0913180948082861,0.2141643518409839,-0.101938935363666,9.79515935596565
1520621015.262602,0.0957394573342682,-0.2161968433868782,-0.0911373811722278,0.2442285446648326,-0.0587722216199175,9.783203193799812
1520621015.267618,0.1022621438887825,-0.2228895717909206,-0.0936355600025137,0.2646721957850499,-0.055176392569077,9.801595003090323
1520621015.2726328,0.1087827683218744,-0.2289900615364959,-0.0996463893088965,0.2911286854700368,-0.0491827509712337,9.800169501198477
1520621015.277648,0.1170678398091698,-0.2356930272177636,-0.0980896467635632,0.2863184146182209,0.0071772235690295,9.747864884539586
1520621015.2826629,0.1251101040877962,-0.2359849033230618,-0.0967540755140489,0.21296178412803,0.0443562899526688,9.714840468792495
1520621015.287679,0.1331525839762356,-0.2377409863755024,-0.0927241607320703,0.2213797581187075,0.0107797024773562,9.65087335741445
1520621015.292695,0.14346462551089,-0.2348391299088562,-0.0867690558232714,0.1251743410823915,-0.0599620897068354,9.662338048532256
1520621015.29771,0.151012521087852,-0.22842644507323,-0.0864636037486989,0.0794767679901413,-0.0779456369793739,9.695340411483334
1520621015.3027248,0.1560504235814838,-0.2185123030169635,-0.0882911745849079,0.0951101482585425,-0.1007305226037582,9.723101918096797
1520621015.307741,0.1613365003307617,-0.2112219801129268,-0.0895981281203721,0.0927050128326349,-0.110323458671132,9.73010754664896
1520621015.3127558,0.1656153117780014,-0.2062667694047391,-0.0895682699657216,0.1564411016191944,-0.0935404567214753,9.739930103496844
1520621015.317772,0.1693928506829908,-0.1983891691618922,-0.0927617982622473,0.1708719141746417,-0.0539699466684257,9.7525346381209
1520621015.322787,0.1739227492816369,-0.1905061745349456,-0.0978505479998956,0.2430259769518787,0.0011848932106906,9.75177854512984
1520621015.327804,0.1761860304553978,-0.1864127932937495,-0.1026934514412255,0.3055594980254842,0.0215654100905505,9.769744306695934
1520621015.332818,0.1774460921903018,-0.1823263617543303,-0.105099574926359,0.3536622065436422,0.0239599445387924,9.78438163716523
1520621015.337834,0.1761991913071305,-0.1744558296397917,-0.1063899474861497,0.4173982953302017,0.059929193263055,9.748861870370575
1520621015.34285,0.1769629045307421,-0.1651217597959127,-0.1098373055727728,0.4438547850151885,0.0695202561311368,9.746270716506762
1520621015.3478649,0.1732082961597379,-0.1528792590341941,-0.1119013023079102,0.4847420872556228,0.0647205099986891,9.716823823089788
1520621015.35288,0.1689434374880821,-0.1452947370338383,-0.1156232103368657,0.4655010038483596,0.015557251198195,9.68451901618371
1520621015.357897,0.1629261713114488,-0.1339280043849413,-0.1174191299225887,0.3524596388306883,-0.0180098766206934,9.67751702530724
1520621015.362913,0.1551473081937546,-0.1234317439203079,-0.1208417270767486,0.2730901697757275,-0.0827572779273252,9.703919870343675
1520621015.367928,0.143345425269241,-0.1126369330442349,-0.1275011843240726,0.1841001590171351,-0.1451056491074145,9.703684706205983
1520621015.372943,0.131799153633035,-0.0983439525229699,-0.1346755230627553,0.0782742002771874,-0.212249270741651,9.708266666032134
1520621015.377959,0.1167357177196477,-0.080543352723621,-0.1464159308822454,-0.0455902741570695,-0.2769932066295927,9.706048999300869
1520621015.382974,0.0976460472499424,-0.0659459158578219,-0.1595260545473061,-0.132175149489754,-0.3225537992018309,9.837096321127587
1520621015.387991,0.076796320564916,-0.0507605716776862,-0.1747928321460581,-0.1646444777395106,-0.310559866148658,9.937345044321445
1520621015.393005,0.0546750139914423,-0.0448920119068856,-0.1931044197132739,-0.1874932642856357,-0.3009649632220278,10.011935298749568
1520621015.398022,0.0320484164059754,-0.044575980549225,-0.2055053027450021,-0.1658470454524645,-0.2565984534351143,10.066302108029957
1520621015.403036,0.0079060674176337,-0.0483319105651691,-0.2209105134863502,-0.1345802849156618,-0.2302197992791106,10.1217549609019
1520621015.408053,-0.010205866338735,-0.0558880451242765,-0.23094490777721,-0.0888827118234119,-0.1750628988807732,10.172390713137856
1520621015.413068,-0.029827443513375,-0.065780217221384,-0.2393710110355111,-0.0648313575643326,-0.0707395552431453,10.218540637663374
1520621015.418084,-0.0486953907967873,-0.0768420026474448,-0.2461841314294572,-0.0227414876109444,-0.0167815142883269,10.263401954636764
1520621015.423099,-0.0673096674116885,-0.0876188609702813,-0.2505605823982539,0.0241586531942596,0.0767477859992578,10.219854922668558
1520621015.428114,-0.0808922985441047,-0.096656369484544,-0.2508748408821011,0.0782742002771874,0.1606834009397519,10.19135488648064
1520621015.4331288,-0.0959704988175823,-0.099295664028698,-0.2468086568150896,0.1095409608139903,0.2074474422937745,10.139870616797175
1520621015.438145,-0.1080307804924071,-0.099892628553166,-0.2432736036219693,0.1263769087953454,0.2230349565586374,10.088557210611324
1520621015.443161,-0.1218461512296325,-0.0978692783829254,-0.2391741838063611,0.1444154244896547,0.2230335516591685,10.012842277740688
1520621015.448176,-0.1364071934297417,-0.0906049442433768,-0.2336806188058602,0.1287820442212532,0.1918571182299736,9.902621170643902
1520621015.453191,-0.1489540186759058,-0.0810109315343551,-0.2273613652213494,0.089097309693773,0.1630808388468963,9.832144720440596
1520621015.4582078,-0.1609959528041333,-0.067619253455561,-0.2245312416210726,0.1035281222492203,0.1606814340804954,9.790169416090093
1520621015.463223,-0.1700208504336155,-0.0536458101488843,-0.2208906348417288,0.1359974504989771,0.1498866414507355,9.722459554275122
1520621015.4682388,-0.1785491368878987,-0.0452135749671639,-0.2153993788585013,0.1961258361466746,0.1510810988759187,9.642847343227658
1520621015.473255,-0.1868171506868231,-0.0306643515499544,-0.20905026711934,0.2237848935446154,0.1462823830030815,9.623988501019346
1520621015.4782689,-0.191571508947541,-0.0181476139976692,-0.2048876182703541,0.2754953052016353,0.1486766364714296,9.573510654883094
1520621015.483285,-0.1948193954175237,-0.0070893936418018,-0.1999272474998404,0.2658747634980039,0.1186988751658246,9.507391323425257
1520621015.488301,-0.1978175198520269,0.0039740241870819,-0.1968611647239067,0.3019517948866224,0.1007089590156937,9.57794849302858
1520621015.493317,-0.1960413664279054,0.01328444962789,-0.1913823751388745,0.3933469410711226,0.1042992621286231,9.572406824905556
1520621015.498332,-0.1912546883158301,0.0182223749015337,-0.184860348929137,0.4799318164038071,0.1546564163945128,9.55756922114375
1520621015.503347,-0.1857117418770666,0.0234454241894851,-0.1759025867407928,0.5148062800794716,0.1582511215257782,9.592090585116212
1520621015.508363,-0.1774031558089647,0.0254453874804103,-0.1599402191534066,0.5027806029499322,0.141464092197644,9.572467559208246
1520621015.5133789,-0.1653250363183109,0.0300809432471816,-0.1482935789817236,0.5015780352369782,0.14626074755126,9.513205245242498
1520621015.518395,-0.156010412023779,0.0352981850575802,-0.1366373586834369,0.4486650558670043,0.2050227493369329,9.498555098697173
1520621015.5234098,-0.1431754008383053,0.0434364779670336,-0.1271298088250627,0.5027806029499322,0.2278022026833707,9.48057399439896
1520621015.528425,-0.1275800229622828,0.0469056887090135,-0.1146869574327128,0.5725295303012613,0.294948634116545,9.449613875318557
1520621015.53344,-0.1112226647368943,0.0521045627736128,-0.0951979744048874,0.6747477859023472,0.4028633111267127,9.370650060057171
1520621015.538457,-0.0911005364284543,0.0520519794383194,-0.0727800029067908,0.7481044163925381,0.5107802359760308,9.36866866712848
1520621015.5434709,-0.0689653869161082,0.0505279640584711,-0.0446954168074868,0.775763473790479,0.5983153327059847,9.360179081385914
1520621015.548487,-0.0463185757432585,0.0559988311068712,-0.0170995018990978,0.7589275258091237,0.6522779629990683,9.360290331909647
1520621015.5535018,-0.022407621714623,0.0646644937671843,0.0145767217698584,0.7673454997998014,0.6342902010281231,9.348604497061215
1520621015.558518,0.0020010490631942,0.0707122631793517,0.0446087288490784,0.7913968540588804,0.643881451216134,9.344874609356038
1520621015.563534,0.0254047911206953,0.0779295474649307,0.0730282197872147,0.7974096926236501,0.6151016127544022,9.329736276811047
1520621015.56855,0.0485575832569399,0.0842674806956147,0.1033353294640021,0.8082328020402356,0.5611394507611417,9.359899294379144
1520621015.573565,0.0719559151455013,0.0879903359468824,0.1309165056907196,0.7721557706516171,0.4927912564255459,9.434694311479188
1520621015.5785809,0.0935861030245099,0.0891082520404176,0.1517172938150192,0.7000017078743801,0.4256450123123008,9.517974318612303
1520621015.583595,0.1131981182624483,0.0864461228076253,0.16924636486565,0.5905680459955706,0.3716922163154997,9.51792995505911
1520621015.588611,0.1325563373981188,0.085841069155969,0.1802983627350897,0.5256293894960572,0.2649737762698424,9.57096257723921
1520621015.593628,0.1496508088827017,0.0872908465789795,0.1854181130013112,0.4462599204410964,0.2110186387739264,9.55784200377895
1520621015.5986428,0.1637291220363158,0.0881559450498363,0.1908095636720706,0.4486650558670043,0.2182132939944745,9.615918775341555
1520621015.603658,0.1777974969519578,0.083492750243874,0.1931827708670344,0.4775266809778992,0.2266050291192143,9.635386115834304
1520621015.608674,0.1933700933205382,0.0732807283933764,0.2003807652277102,0.4859446549685768,0.2661760074720869,9.67361634273331
1520621015.613689,0.2076871207655462,0.0642359376675453,0.2067783478582772,0.4895523581074387,0.3261327476628367,9.731629958312505
1520621015.618705,0.2227611653391309,0.0563518814000362,0.2150772439315773,0.4679061392742675,0.4016802802172102,9.68760551069512
1520621015.62372,0.2395925453807821,0.0484743417698613,0.2212085057747683,0.5484781760421823,0.4280550943146655,9.615904765243702
1520621015.628736,0.2579409509550102,0.0449572343163128,0.2314285019964936,0.5929731814214785,0.507194896841225,9.55031444032918
1520621015.633751,0.2765494488324844,0.0458015236238178,0.2451984744213075,0.5797449365789851,0.539572718532983,9.460926539315256
1520621015.638767,0.2941551350294206,0.0513206833050629,0.2541360569779379,0.5496807437551363,0.5563630259598782,9.41820346867031
1520621015.643782,0.3112649117989526,0.0620860244286322,0.262573496724881,0.5196165509312874,0.5431748228014515,9.37086105568973
1520621015.648799,0.331641091140784,0.0731469437258075,0.2699249085710016,0.4390445141633727,0.5024103236230417,9.334496445469767
1520621015.6538138,0.3487469592772846,0.0836325552191688,0.2740313908982154,0.4318291078856491,0.5000126047360035,9.357811893571208
1520621015.658829,0.3600700532453829,0.0929547347123067,0.2765164401440239,0.3584724773954579,0.4496544202105032,9.45735725037032
1520621015.663846,0.37012939638749,0.0979100246047497,0.2773472013511378,0.3055594980254842,0.4124851881231464,9.631067971548465
1520621015.668861,0.3721307348142644,0.0953065622801423,0.2705598123996501,0.2839132791923129,0.3357418869040854,9.807999381317424
1520621015.673877,0.371862593906618,0.0859959991415165,0.2653487683708913,0.2538490863684641,0.2769863476559696,9.923401556819003
1520621015.678892,0.3678097946435831,0.0664898713009211,0.2584436418299591,0.1901129975819047,0.194250622418605,10.067046315586778
1520621015.6839058,0.3604754247534498,0.0394210344500249,0.2460758645554803,0.0782742002771874,0.1115186435798242,10.240212875467078
1520621015.6889238,0.3508741787066555,0.0103196325499491,0.2307207213383627,0.0193483823424438,0.0671550372518131,10.347746932572363
1520621015.693939,0.338760693170865,-0.017907143461529,0.2148358228180846,-0.0395774355922997,0.0096008862662605,10.392538078881564
1520621015.698953,0.3251405163023952,-0.0446746738455217,0.1978826564803775,-0.0672364929902407,-0.0083840659057468,10.455580608795945
1520621015.70397,0.3100144870791911,-0.0682295524207969,0.1779807395657902,-0.0960981181011353,0.0467786414103955,10.456969884498909
1520621015.7089849,0.296904787917579,-0.0874128754423452,0.1581084351446762,-0.03356459702753,0.0851462646414484,10.323839391927772
1520621015.714001,0.2825416721298733,-0.1051434102604765,0.1396023092459728,-0.060021086712517,0.1079319932055141,10.290372511051054
1520621015.7190158,0.2706948887484388,-0.1202497713464872,0.1208409779864413,0.0049175697869963,0.1546934120805279,10.237398355833434
1520621015.724032,0.2568481861643439,-0.1274888094088555,0.101872857920538,0.0902998774067269,0.2086480812766208,10.20513678979702
1520621015.729047,0.2442545826240802,-0.1399846600129402,0.0874616689330265,0.1576436693321481,0.2614050149487699,10.191646272213752
1520621015.734062,0.2273962850357493,-0.1489943112065324,0.0763316420156572,0.2322028675352931,0.3213562292016085,10.126944174270788
1520621015.739078,0.2130533515098568,-0.1562546706809505,0.0652102863774323,0.2310002998223392,0.3585296759873721,10.13156820562735
1520621015.744094,0.1974629721123242,-0.1623747509802108,0.0632987171574442,0.2514439509425563,0.4160868240917918,10.152231682560062
1520621015.7491078,0.1846406630340397,-0.1658720159539444,0.0616725676451591,0.2742927374886814,0.4400678530207219,10.135715884343902
1520621015.7541249,0.171566659164741,-0.1696607639105126,0.0600446617708358,0.2646721957850499,0.4220814959492456,10.148610648380467
1520621015.75914,0.1534721790586687,-0.1690792562063855,0.0579183448497802,0.2911286854700368,0.4220794354300245,10.218081774392235
1520621015.764156,0.1361272869127738,-0.1705320458092089,0.0538812448904349,0.2766978729145894,0.4268771210432511,10.21124469398704
1520621015.769171,0.1220459746194742,-0.1763630645721975,0.0530512819997334,0.2791030083404973,0.3897035805975229,10.229851836658431
1520621015.7741868,0.1046924536230099,-0.1862754750703962,0.0524668092131261,0.2779004406275434,0.3801105508701846,10.2263864645662
1520621015.779202,0.0870855246219411,-0.1967663824923155,0.0502550816037636,0.2947363886088987,0.3297453418473396,10.216974554390966
1520621015.784217,0.0727472877208003,-0.2046277217980146,0.0458929271924503,0.3031543625995763,0.3069610181827429,10.176239798044056
1520621015.789233,0.0551431304532109,-0.2130789375288837,0.0436967611802548,0.2935338208959448,0.2518013079854676,10.177549372055168
1520621015.794248,0.0395512613161632,-0.2180232816840231,0.0380064417588878,0.3019517948866224,0.2793808821042115,10.11584691228383
1520621015.799264,0.0277388207176768,-0.2145108986970689,0.0304797696911205,0.3055594980254842,0.2841771628179692,10.061186353909251
1520621015.804281,0.0144268944808354,-0.2078069884023635,0.0278501780276087,0.3067620657384381,0.2649908223833986,10.02400475174581
1520621015.809296,0.0008652180049074,-0.1967178400324504,0.0198434814489874,0.3223954460068395,0.3021629579296579,9.940141971791752
1520621015.814311,-0.0111866033750673,-0.1862203395877544,0.015346635006835,0.3428390971270566,0.3309407358721687,9.838808397673452
1520621015.8193269,-0.023235523655675,-0.1745616716202937,0.0124819562813283,0.3344211231363789,0.3357379531855724,9.84702066339097
1520621015.824342,-0.0320155793485043,-0.1614448010943266,0.0096223255798424,0.3668904513861356,0.320146598862161,9.84090910850661
1520621015.829358,-0.0465769194702208,-0.1506670987127039,0.0089200119983301,0.3500545034047803,0.2757797144353891,9.859710548116322
1520621015.834373,-0.0576202484725489,-0.1387166523957836,0.0060556894650478,0.2959389563218526,0.2721865078635573,9.814917169458708
1520621015.8393888,-0.0701664503505811,-0.1259050265583873,0.0078001167576431,0.3043569303125302,0.2230210948838774,9.79047815393436
1520621015.844405,-0.0829678596907332,-0.1133732288067408,0.0052140533537804,0.2863184146182209,0.1834508658107216,9.80812447728928
1520621015.8494189,-0.0937613404136565,-0.1020032677956611,0.0015331802389038,0.2418234092389248,0.1115059058246393,9.74703409515842
1520621015.854436,-0.1027924753936302,-0.0888872241563036,-0.0010554378434094,0.1913155652948588,0.0335657120213157,9.803384624382067
1520621015.859451,-0.1171029910278469,-0.0748881680354256,-0.0076857739196147,0.16125137247101,-0.0395795123077545,9.861855778197912
1520621015.864467,-0.1299115590082296,-0.0629180148373985,-0.0181221144752323,0.1059332576751284,-0.1355064378224127,9.90664922819382
1520621015.869483,-0.1412224055500723,-0.0570605185307294,-0.030772307329189,0.1275794765082993,-0.1786771789446389,9.958777111330996
1520621015.8744988,-0.1517819940401099,-0.0526574642006964,-0.0442466534672113,0.1239717733694376,-0.1786768979647451,9.99251440117263
1520621015.879513,-0.1633530269933861,-0.0535026389083734,-0.056676964664116,0.1624539401839639,-0.1750824738133736,10.037459945563786
1520621015.884528,-0.1751790517989692,-0.0560918486489425,-0.0707434230250143,0.2009361069984905,-0.1331155561127901,10.053314472243471
1520621015.889544,-0.1822339664413328,-0.0627651269959304,-0.0824149592592908,0.2766978729145894,-0.0587747504389616,10.060639562334671
1520621015.89456,-0.1897894166204511,-0.0700308409124689,-0.0905729115709279,0.3368262585622869,0.0875156982191789,10.011101604047695
1520621015.899574,-0.1953358914588445,-0.0810961493676343,-0.0941642175474392,0.3957520764970305,0.2302088192670454,9.908120236940816
1520621015.9045908,-0.1948403348714034,-0.0869265567266799,-0.0931274291165686,0.4438547850151885,0.3345302897053814,9.766930883708527
1520621015.909607,-0.1883049422775689,-0.0875147786789278,-0.0901680052373286,0.4919574935333466,0.4196655133691114,9.667597422256126
1520621015.9146218,-0.1815112529058727,-0.0819794565160765,-0.0887856386652659,0.5148062800794716,0.5299846527837683,9.680051030469466
1520621015.919638,-0.1729559234711529,-0.0758665035583901,-0.0852377258182735,0.5893654782826167,0.6115203946580385,9.643219339321266
1520621015.924654,-0.1611232025705349,-0.065103958432264,-0.0765199389867314,0.6398733222266826,0.6786683246506464,9.608960069281029
1520621015.929669,-0.1487879310658335,-0.0555118535217006,-0.0659181566716617,0.7000017078743801,0.7170361352016286,9.596715958061534
1520621015.934684,-0.1336883253870652,-0.0447480284735326,-0.0572064372426467,0.7950045571977422,0.73981240410927,9.52139182808809
1520621015.939699,-0.1178362777028461,-0.0360279703361965,-0.0468884042052055,0.802219963475466,0.7601972293475012,9.473653816859304
1520621015.944716,-0.0999761759676413,-0.0308117516237876,-0.0336247771227363,0.8467149688547622,0.7697868873161142,9.442995632247838
1520621015.94973,-0.084876362543322,-0.0244390905549115,-0.0173711188881307,0.875576593965657,0.7661872182067253,9.446204650774014
1520621015.954747,-0.0677749598247147,-0.0253538971793632,0.0001759579070707,0.8924125419470122,0.7649867665438081,9.461149820728144
1520621015.959762,-0.0481651831281801,-0.0277159007120488,0.0144607012921963,0.8900074065211043,0.7314110220081769,9.513502450279846
1520621015.964778,-0.0338313175367452,-0.0289137052708705,0.0284935923113567,0.8671586199749792,0.7038325718090082,9.528859612559538
1520621015.969794,-0.017743017576611,-0.0312661607151226,0.0387266813837623,0.8443098334288542,0.6474747514479305,9.540758407118563
1520621015.974808,-0.0021550296791564,-0.0327483016439184,0.0503201026381455,0.8262713177345449,0.6282899095727935,9.51422338144591
1520621015.979825,0.0129293138366253,-0.0315928816857377,0.0562530012929317,0.7396864424018604,0.5959198616580968,9.499989846263496
1520621015.984839,0.0292771455144917,-0.0257770023063657,0.0630307733840184,0.6807606244671169,0.5551536766003244,9.507576015288189
1520621015.989856,0.0443711254145072,-0.0170433993453664,0.0682098345691502,0.6494938639303142,0.5299741628677336,9.467229864481844
1520621015.994871,0.0554424383476663,-0.007427020056206,0.0696153900399346,0.5965808845603403,0.462826420195055,9.460837506237269
1520621015.999886,0.0660119926005933,0.0039425685031028,0.0691413961978106,0.5364524989126427,0.3944800990587511,9.462651555350032
1520621016.004902,0.0775921092168513,0.0190998213083183,0.0689649814675272,0.529237092634919,0.3549090270459139,9.45927394202117
1520621016.009917,0.0861505279673128,0.0310564902953542,0.0666053463108843,0.5256293894960572,0.2661729166932552,9.446612004798515
1520621016.0149329,0.0919399551087874,0.0406860990705632,0.0623392391564406,0.4462599204410964,0.2134169196207522,9.489273171801525
1520621016.019949,0.0957137970584274,0.0453562842199849,0.0599328946092131,0.4222085661820174,0.1906351247751995,9.537177392498776
1520621016.024964,0.0999802984282724,0.044498373003671,0.0545073731396472,0.4173982953302017,0.1354750399380658,9.617465935171085
1520621016.02998,0.0992248651473982,0.0445031766545206,0.0526149520381525,0.4113854567654318,0.1018995763823285,9.75817662041272
1520621016.0349948,0.0989714140208312,0.0442175211202285,0.0504488285089044,0.381321263941583,0.1342787093135908,9.767734826297389
1520621016.040012,0.0974545217862733,0.0404420432913913,0.0455529026132855,0.3789161285156752,0.1282831945164557,9.792169106145092
1520621016.0450258,0.0929262658858164,0.0392856594484866,0.0414942228524125,0.357269909682504,0.1390771442065342,9.807477144512369
1520621016.050041,0.0914113103389239,0.0372599456455424,0.0360705436768486,0.3512570711177343,0.1426750337765958,9.802883585959874
1520621016.055058,0.0898996087313616,0.0369796252820843,0.0317423865967473,0.3680930190990896,0.1366780204200271,9.79575269814084
1520621016.060073,0.0861339604805338,0.0422339964062482,0.0277312145428712,0.360877612821366,0.1318820206861632,9.729585400445906
1520621016.065089,0.085129698250312,0.0463282830186059,0.0220827408163648,0.3416365294141027,0.1594637489840928,9.662341437201274
1520621016.070104,0.0856374120879526,0.0547997557221494,0.0143004458626645,0.3452442325529645,0.1738531530851534,9.686697312999602
1520621016.07512,0.0861449926275742,0.0626862740779038,0.0073253424260487,0.3115723365902539,0.1942411627621809,9.714896630713552
1520621016.0801358,0.0846415709627493,0.0717448272091743,-0.0023425938421705,0.3512570711177343,0.2350088463793869,9.750497068897788
1520621016.08515,0.0846509133575067,0.0842998569701418,-0.0117161075304013,0.381321263941583,0.2422013474207492,9.757170290176948
1520621016.090166,0.0844097017929333,0.0962669202035072,-0.0191997793946714,0.3452442325529645,0.2422041572196871,9.76565644954927
1520621016.095183,0.0824059249434663,0.1064886292396625,-0.0280462521874059,0.3717007222379515,0.2709814668623749,9.760722298349023
1520621016.1001968,0.0811541470834307,0.1132045497110467,-0.0334037055269535,0.4137905921913397,0.2697790483402012,9.77774595002664
1520621016.105214,0.0766306858480439,0.1152519388062281,-0.0368968395576186,0.3873341025063528,0.2769759513998995,9.859346522027858
1520621016.110229,0.072359044837428,0.1152488081998839,-0.0363478134702037,0.3921443733581686,0.2949626831112342,9.88252504079779
1520621016.115244,0.067574648388719,0.1097179158367051,-0.0390866433079431,0.408980321339524,0.2805716867907754,9.92886096024758
1520621016.12026,0.0615340165263433,0.1024294828592469,-0.0385899272903686,0.4210059984690635,0.2625836438399364,9.92411287395519
1520621016.125274,0.0544871347598557,0.0948514568255324,-0.0389052051527221,0.4161957276172476,0.2913633886417037,9.960158092619697
1520621016.130291,0.0489559142201866,0.090467596428205,-0.0348700950818784,0.3765109930897673,0.285370777303471,9.939631615002066
1520621016.135306,0.0404089783655679,0.0869610787326628,-0.0324459904512575,0.3584724773954579,0.2985627268604814,9.91887573694077
1520621016.140323,0.0381462774379762,0.0863781520092697,-0.032716782008336,0.3741058576638594,0.2781761220829229,9.860636252263516
1520621016.145338,0.0368913240182737,0.0878360392301614,-0.0332444247572339,0.35606734196955,0.2985629141804107,9.827089774670313
1520621016.150352,0.0333749477328126,0.0904629490467563,-0.035382250030859,0.3801186962286291,0.3105524452152475,9.836141131783045
1520621016.155369,0.0303625765332494,0.0939634809252454,-0.0372437935991967,0.3392313939881948,0.3201487530413467,9.853961908300825
1520621016.160383,0.0266010172675656,0.1012531731540527,-0.0396161286804983,0.3476493679788724,0.3105549740342915,9.84924075180296
1520621016.1654,0.0233401229045243,0.1082567767841251,-0.0438854415649607,0.3704981545249975,0.3321377221163959,9.929185240465486
1520621016.170415,0.020835277326227,0.115546232859573,-0.0459895643667177,0.3211928782938855,0.3801071791114592,9.943564101659607
1520621016.175431,0.0165687446308125,0.1210874210135395,-0.0483743045133341,0.3536622065436422,0.3261433312388359,9.959570700761402
1520621016.180446,0.0090321515975807,0.1213692959949717,-0.0459231666667738,0.3344211231363789,0.3309413914919209,10.025995509697712
1520621016.185461,0.0012386300243766,0.1181573719176187,-0.0445804227042622,0.3223954460068395,0.3777088046046688,10.060931274657811
1520621016.1904778,-0.006806766691954,0.1128983733829958,-0.040547314656634,0.3704981545249975,0.377705058206085,10.129029565699687
1520621016.195493,-0.0151101544002772,0.1009294195233488,-0.0335888659929415,0.429423972459741,0.4112764007233803,10.152828299474413
1520621016.200507,-0.0244204506385445,0.0886730579006491,-0.0282540488968807,0.4029674827747541,0.4448543930981617,10.219295274607289
1520621016.205524,-0.0337311467708686,0.0746618332345817,-0.0204976572495663,0.3933469410711226,0.4376602998374013,10.211260923414663
1520621016.2105389,-0.0425383278874076,0.0588915718498233,-0.0086973491221335,0.457083029857682,0.490417514489444,10.196643377046454
1520621016.215555,-0.0533581852321519,0.0422500113941918,0.0017472940560347,0.5075908738017479,0.5203920913562529,10.204257538874844
1520621016.220571,-0.0646794131594648,0.0247260877038524,0.0151622062797305,0.5148062800794716,0.5263872315135296,10.170479287167684
1520621016.225587,-0.0747394385201904,0.0109921120081646,0.0280625932042919,0.50518573837584,0.5072017340186404,10.19383451613147
1520621016.2306008,-0.0805296262599468,-0.0039035427592827,0.0401345158042987,0.5111985769406099,0.5239892316465977,10.13216599052623
1520621016.235616,-0.0893275708863088,-0.0138504841845902,0.0536025610133306,0.5148062800794716,0.5287855123603554,10.09377544751072
1520621016.240632,-0.0943555469383617,-0.0226267685122618,0.0657197682350248,0.4991728998110702,0.520392746976005,10.074179351397287
1520621016.2456489,-0.0971198105970276,-0.0302380854930223,0.078382759080318,0.4943626289592545,0.5084017173817347,10.078886440832363
1520621016.250663,-0.0983778611967341,-0.0375508713336296,0.0886102596081817,0.4787292486908531,0.4964115307271457,10.059293852736678
1520621016.255679,-0.100896357696877,-0.0448510376927248,0.0939702676261799,0.4474624881540504,0.4988122467330509,10.02473152689869
1520621016.260694,-0.0991413706069258,-0.0527395836728753,0.1020233541369587,0.4498676235799582,0.4748292509448643,10.006137200303325
1520621016.26571,-0.0976424691468711,-0.0609050440145042,0.1046637663676747,0.3969546442099844,0.4568462656321134,9.97412973215669
1520621016.270727,-0.0928696379057991,-0.0617751416478875,0.1038365916818871,0.3632827482472739,0.4376626413365161,9.922179705224758
1520621016.2757409,-0.0883478859518716,-0.0626460661678802,0.1032804296152721,0.3043569303125302,0.4208792647470011,9.916958903968046
1520621016.280758,-0.0805612250972908,-0.0635091548862209,0.1002832870830189,0.3043569303125302,0.4160827030533496,9.900693565965977
1520621016.2857718,-0.0735322831190816,-0.0652379513802516,0.094034324713836,0.3103697688772999,0.3837054433213791,9.879748021667645
1520621016.290788,-0.0675080581835067,-0.0687249184640878,0.0912909873725969,0.3512570711177343,0.3872996801528215,9.85842795055546
1520621016.295804,-0.0589687749713625,-0.0698761826188251,0.0872080380016152,0.3163826074420698,0.3633195878235373,9.843682912571964
1520621016.300818,-0.0486733912310224,-0.073065720844753,0.0828357140746658,0.3476493679788724,0.3393343441962004,9.829456240439246
1520621016.305835,-0.0401355233108614,-0.0780173671824505,0.0833231448249804,0.3993597796358923,0.3681096869796317,9.824276283054044
1520621016.31085,-0.0298425623961686,-0.084125849698782,0.0808224113162438,0.3969546442099844,0.358516750912258,9.7940933050712
1520621016.315867,-0.0165235088446661,-0.0855848385022153,0.0834920185153282,0.4173982953302017,0.3908919501250074,9.750863420646104
1520621016.3208818,-0.0032139073931536,-0.0914029403179571,0.081799545100349,0.4703112747001755,0.401680092897281,9.732905714796813
1520621016.325898,0.0101022411268506,-0.0954865751602299,0.0852607822193508,0.4558804621447281,0.4052786380870948,9.719096940005551
1520621016.330925,0.023417201761078,-0.1004443635843814,0.0887153500824239,0.4161957276172476,0.418472273523468,9.750848230899788
1520621016.335928,0.0357267044150449,-0.1051089760102033,0.0913623702361881,0.381321263941583,0.3956913216175967,9.7395884554397
1520621016.340944,0.0490391207219992,-0.1091802275243233,0.0902243271248689,0.3656878836731817,0.3992899604673751,9.76181784828566
1520621016.345959,0.062355014442359,-0.1100433355139504,0.0880285543683503,0.333218555423425,0.3705131191245102,9.771459100584911
1520621016.350973,0.0739123887410064,-0.1103236352067157,0.0855699489494488,0.2995466594607143,0.3753123032971704,9.767133588990976
1520621016.35599,0.0889901930525584,-0.1079757251898545,0.0815015417971278,0.2718876020627736,0.3369419639271442,9.701198018754278
1520621016.361006,0.100552369880538,-0.1021252949123842,0.074760886835308,0.2334054352482473,0.3477372248567271,9.72945351140793
1520621016.366021,0.1121096618673912,-0.1003564333102177,0.0688007463668576,0.1961258361466746,0.3417444261985651,9.750740806029338
1520621016.371038,0.1239238432043853,-0.0933374527437629,0.0609863334393999,0.1877078621559971,0.3429442222417302,9.710146533687402
1520621016.3760529,0.1339785367758344,-0.0866105458933928,0.0531729644895319,0.164859075609872,0.3369502996639931,9.674348313874956
1520621016.381067,0.1465473202800198,-0.0784228181268701,0.0442838601498936,0.1624539401839639,0.3621324358755926,9.598807810839324
1520621016.386083,0.1573654565469118,-0.0649952286442741,0.0370613137841346,0.158846237045102,0.3513404530447706,9.540746252350894
1520621016.391099,0.1709414582990419,-0.0556430258085487,0.0287203266844519,0.1396051536378391,0.3225625814422952,9.518880862265544
1520621016.396114,0.1825096176778683,-0.0457146690111136,0.0225518867087688,0.1359974504989771,0.3141688794582989,9.51776201885535
1520621016.40113,0.1968479604835896,-0.031121619903898,0.0158727903502521,0.1432128567767008,0.3213631600389885,9.520009060389734
1520621016.406146,0.2119388785927806,-0.0179873833597253,0.0099928160830771,0.1744796173135034,0.322559865303322,9.451137066284472
1520621016.41116,0.2235102487889747,-0.0060207917333755,0.0043810294963636,0.1720744818875956,0.3825170737938947,9.46504773688547
1520621016.4161758,0.2380957935743783,0.0036100776925888,0.0009102247151274,0.1744796173135034,0.4292833629870675,9.449870851137034
1520621016.421192,0.2544396695651196,0.0079755903151066,0.005241968316555,0.1949232684337207,0.4820439493978357,9.467052573564088
1520621016.426208,0.2685175005128828,0.0091349870375274,0.0095534584890191,0.2261900289705234,0.5240114290582067,9.449275155909978
1520621016.431223,0.287370138579215,0.0094177302469548,0.0154726870388068,0.25865935722028,0.5360003044732913,9.441974562268657
1520621016.436239,0.3039647802069693,0.0114435239338574,0.0230327299853012,0.2514439509425563,0.571975079135465,9.37111893122236
1520621016.4412549,0.318538834232268,0.0096972850361786,0.0243450510032132,0.2394182738130168,0.5959588242033684,9.334023988466615
1520621016.44627,0.3346217789418182,0.0079479947164109,0.0270073011610035,0.2346080029612012,0.6463230966265674,9.42002034905605
1520621016.451285,0.3461797608800732,0.0050313940877213,0.0296690599964392,0.2382157061000629,0.6786996070788212,9.51176303411034
1520621016.456301,0.3537162558729866,0.000944766336922,0.0334115776465826,0.3091672011643459,0.6954820470686902,9.565676830879992
1520621016.461316,0.361006772029695,-0.0005253265723253,0.0393389369549935,0.3151800397291158,0.7458454765522078,9.607406375701265
1520621016.466333,0.3660312039535937,-0.0034452154761664,0.0422833764913847,0.3344211231363789,0.7902121736590505,9.600202965520891
1520621016.471348,0.3690516158932949,-0.0049235380092327,0.0506535831585191,0.4234111338949714,0.7746164173173031,9.61562200811466
1520621016.476364,0.3685535384398882,-0.0058168277099577,0.057682040642565,0.3969546442099844,0.720657158782945,9.627553579164465
1520621016.4813778,0.3680511916492248,-0.0105010299897615,0.0657637816011912,0.4186008630431554,0.703867506975802,9.654088569845326
1520621016.486395,0.3620172793431914,-0.0172263615514647,0.0735696829787182,0.4222085661820174,0.6594990303296321,9.622718833464369
1520621016.49141,0.35949276110237,-0.0268481345250215,0.0753948096675236,0.3368262585622869,0.6690988035744214,9.649107704749458
1520621016.496425,0.3542077389408501,-0.0338492581949687,0.0775156239760011,0.2983440917477604,0.6379241496845538,9.706457723132328
1520621016.501441,0.3461550032321762,-0.0414254927576464,0.0763905753190292,0.282710711479359,0.5851631886339271,9.755471385870056
1520621016.5064569,0.3380977433866012,-0.0495721130467572,0.0706618002611171,0.261064492646188,0.5395975384236008,9.782455822724256
1520621016.511472,0.3287903718404873,-0.051886436050244,0.0630859992544448,0.1997335392855366,0.5204160683071892,9.831881536107195
1520621016.5164878,0.3147065662061393,-0.0541968022604803,0.0533546988227177,0.1660616433228259,0.4904401802008761,9.854319246298536
1520621016.521504,0.2998625326258471,-0.0597061377579531,0.041165431559288,0.137200018211931,0.5156243769316966,9.830170588489922
1520621016.526519,0.2870351309608853,-0.0628938074276987,0.0327778577347817,0.1901129975819047,0.5791746983341366,9.879565781058355
1520621016.531534,0.2724508368438763,-0.0646259720808394,0.0246752122956238,0.2201771904057534,0.5923629014925633,9.888557443549704
1520621016.536551,0.2535977165716933,-0.0646144170387026,0.0176760232475408,0.2418234092389248,0.6463225346667798,9.904564147626864
1520621016.541565,0.2375107769851864,-0.0625591735702859,0.0096050782570355,0.2466336800907407,0.6619109855312888,9.917285709487324
1520621016.546581,0.2194161714453573,-0.0596356631817985,0.0034383575799381,0.2177720549798458,0.681099480145045,9.92800721700153
1520621016.551596,0.1995676176748108,-0.0543883216433701,-0.0002723982886721,0.2213797581187075,0.7254673948314274,9.918631684646265
1520621016.556612,0.1789653438369804,-0.0488491625132061,-0.0042500767980601,0.2754953052016353,0.7638356736822325,9.972688304099387
1520621016.561629,0.158362152641542,-0.0415507697532676,-0.0122726052341091,0.3055594980254842,0.8237903533537612,9.99441794585641
1520621016.566643,0.1400278134802615,-0.0322263678237598,-0.0148728546644082,0.357269909682504,0.87654850460545,9.9636474346934
1520621016.5716588,0.1199296309722542,-0.0263992694105585,-0.0174965140555231,0.4125880244783858,0.9137175493728776,9.964234896535269
1520621016.576675,0.0980742031722368,-0.0197008918974738,-0.0192985994401063,0.4534753267188202,0.9329006117086872,9.945223911921277
1520621016.581689,0.078982450920454,-0.0118286089535809,-0.023802385398448,0.4582855975706359,0.9436925008795448,9.875437930389175
1520621016.586706,0.0624071133867366,-0.0033813135724991,-0.0250598416680689,0.4715138424131294,0.973669981205256,9.879928517104124
1520621016.591721,0.0440743149511959,0.0074014678556086,-0.0281900674636225,0.481134384116761,0.966474389385062,9.871706885008676
1520621016.596737,0.028252172156949,0.0161440852859474,-0.030799430297254,0.4715138424131294,0.97127170035843,9.892714439279032
1520621016.6017509,0.012434957325791,0.0286754300021616,-0.0336504389177621,0.4907549258203926,0.9532830954478037,9.86116681170104
1520621016.606768,-0.0023793046625478,0.0400438157245743,-0.0373238444602975,0.4943626289592545,0.9376939889635424,9.8425525946745
1520621016.611784,-0.0159317133227293,0.0522730071162858,-0.0358525423411373,0.4943626289592545,0.9005206358377436,9.858858859550308
1520621016.616798,-0.0282320186763507,0.0645172594070619,-0.0397944917563584,0.4871472226815307,0.8597504234014934,9.889184590233052
1520621016.621814,-0.0387749493720741,0.0750117084296689,-0.0429414090586325,0.4522727590058661,0.809389241757126,9.881438141438366
1520621016.62683,-0.0528346523151841,0.087841682741578,-0.0482283747198414,0.4113854567654318,0.7590285284125817,9.86329092233784
1520621016.631845,-0.0663994533645544,0.0963069135037195,-0.0557139872744465,0.382523831654537,0.7662256187922093,9.896104858374708
1520621016.636862,-0.0739335215996894,0.1047759640609971,-0.0637518929793658,0.3897392379322607,0.7194585803193198,9.914674535534392
1520621016.641881,-0.0885053213550602,0.1120759913228681,-0.0715150768780252,0.4041700504877081,0.7074660521656159,9.9098971924329
1520621016.6468918,-0.1003123478524758,0.1205462818602083,-0.080627231870937,0.4378419464504187,0.7218531147675618,9.874691100155394
1520621016.651907,-0.1118708472542823,0.1269769791620399,-0.0897554151842872,0.4149931599042937,0.7098634900727603,9.881898053345305
1520621016.656924,-0.1216738185097999,0.1307859049070273,-0.0989068733283229,0.4125880244783858,0.6918765710414964,9.88426329145534
1520621016.66194,-0.1324778098526022,0.1360440751556343,-0.1053398901937132,0.4630958684224517,0.6738855309717904,9.875654211494648
1520621016.666954,-0.1405187921372644,0.1395513790961035,-0.1104386500474392,0.4787292486908531,0.6714860325454248,9.891774399798672
1520621016.671969,-0.1480606071230612,0.1410213735498092,-0.1163655426325788,0.4703112747001755,0.6954694966334345,9.822104311155517
1520621016.676986,-0.1543461475053598,0.1424925887122912,-0.1225653147299762,0.4943626289592545,0.6870736404702524,9.816067675630642
1520621016.682,-0.1571109991429781,0.1448349652478285,-0.1271416763218359,0.5184139832183335,0.664288099226116,9.82050436776474
1520621016.687017,-0.1606351574368016,0.1436826173824295,-0.1325549524553004,0.5111985769406099,0.7062585760053541,9.781020776786107
1520621016.692033,-0.1598906228734699,0.1402015954739638,-0.1382644934627553,0.5412627697644586,0.7194467791637807,9.808606742544962
1520621016.697048,-0.1576410710012178,0.1332179940916233,-0.1415685987704421,0.530439660347873,0.7266424646439393,9.802894352246206
1520621016.7020628,-0.1558929328334968,0.1256448708640034,-0.1424413037390943,0.5436679051903665,0.780602753437908,9.782956529137556
1520621016.707078,-0.1493711244467589,0.1189550561842321,-0.1460216661529852,0.5376550666255967,0.7925946259718597,9.87365058945628
1520621016.7120938,-0.1415909322810069,0.112844860681416,-0.1482471865331073,0.531642228060827,0.8285693069740687,9.860890451064511
1520621016.717109,-0.1343081040244736,0.1099367843434671,-0.1493651359446764,0.5208191186442414,0.8849297498141551,9.85164368599386
1520621016.722126,-0.1260257532844328,0.10382824261387,-0.1521326815631437,0.532844795773781,0.9005176387188765,9.861970729607323
1520621016.727141,-0.1152313434075084,0.0950894835212401,-0.1516783514312956,0.4979703320981162,0.8969229335876111,9.872772979849408
1520621016.7321548,-0.107194571609616,0.0933523396765624,-0.154682629942749,0.5148062800794716,0.9245018520866028,9.85747434285185
1520621016.7371728,-0.0961431822064946,0.0907414952854385,-0.1574286324934857,0.5232242540701493,0.9472848645116952,9.81785729556767
1520621016.742188,-0.0850852849247128,0.0916214377732868,-0.1579835908532975,0.5352499311996888,0.9364916641013332,9.807291473468684
1520621016.7472029,-0.0742820776414996,0.0887074555022434,-0.1564026154316528,0.5593012854587678,0.932892369631803,9.86865450993152
1520621016.752218,-0.0657366080650887,0.0857794753721043,-0.149947613374344,0.6182271033935114,0.9340869207169504,9.84599905769722
1520621016.757234,-0.056189549951617,0.0805222697079245,-0.1440533546843997,0.6362656190878208,0.9424794987813716,9.8957874865075
1520621016.762249,-0.0481570161654117,0.0703109363465154,-0.1381940881050904,0.6338604836619128,0.9017089117052632,9.912120669513907
1520621016.767266,-0.0406229949843704,0.0606712486625917,-0.1282712534701008,0.677152921328255,0.919692646297731,9.859385269453956
1520621016.772281,-0.0333442714415053,0.0498739371557006,-0.1213328493079919,0.5941757491344324,0.9256948109523524,9.868322079330657
1520621016.7772958,-0.0258109088862963,0.0402364347649803,-0.112221652360706,0.5821500720048929,0.8621413051111162,9.85455537742452
1520621016.782311,-0.0192818595475337,0.0320591033438967,-0.104450202573293,0.5881629105696626,0.845352870883513,9.862648230571422
1520621016.787328,-0.0162707742740658,0.0238796651141618,-0.0964016727641804,0.6074039939769258,0.8501479340177309,9.838051249273
1520621016.792343,-0.0079803044142238,0.0162806929189811,-0.0867352225977389,0.6074039939769258,0.8357582489367765,9.87060531206213
1520621016.797358,-0.004972473080086,0.0063558612497601,-0.0797822148840887,0.580947504291939,0.8333620286091719,9.84181156312653
1520621016.802373,-0.0024653497705534,-0.0029900404312975,-0.0714710980737705,0.5400602020515046,0.8201746683904265,9.822465950555044
1520621016.807389,0.0055749660240142,-0.0094221161107126,-0.0623363806346218,0.531642228060827,0.8249718857038302,9.803948905325525
1520621016.812404,0.0103507296900228,-0.0138143231589838,-0.0537211259875813,0.5364524989126427,0.8357637748746877,9.771351530328436
1520621016.81742,0.0133692480640212,-0.0173352511073716,-0.044284297334009,0.5376550666255967,0.8261705578274201,9.71556627018349
1520621016.822437,0.0204046390704038,-0.0211343333973003,-0.0391858936725072,0.5352499311996888,0.8045862175259175,9.713286440494398
1520621016.827452,0.024430603098553,-0.0205645576754038,-0.0337779971562046,0.5388576343385506,0.8177764812035654,9.699292735142745
1520621016.832466,0.0267004156122816,-0.0205906235250375,-0.0237719995173009,0.5436679051903665,0.8009881406359267,9.72018087684248
1520621016.837483,0.0307236941508767,-0.0226462222730482,-0.0173019271851795,0.5340473634867349,0.815378574996598,9.67145043914569
1520621016.8424978,0.0312334112594527,-0.0203280609028422,-0.0124152498230233,0.5352499311996888,0.7794042686342473,9.688905973580042
1520621016.847513,0.0339977375692575,-0.0220832977973869,-0.0094577174359518,0.5472756083292283,0.8261698085477034,9.698040470418794
1520621016.852529,0.0342541368492853,-0.0194658376136838,-0.0075443551201282,0.5388576343385506,0.811780779086501,9.710920021381185
1520621016.857546,0.0312436082292003,-0.0165568159625942,-0.0061637941082703,0.5027806029499322,0.7530257081382081,9.757814228865971
1520621016.862561,0.0314961380660282,-0.0159754053146023,-0.00561872286912,0.5075908738017479,0.7758090015431944,9.754258759331863
1520621016.8675768,0.0307401324032469,-0.0165540991494063,-0.0072450442453326,0.5232242540701493,0.7746086435402417,9.74248632339538
1520621016.872592,0.0284797210032837,-0.0148030359301851,-0.0085802347035393,0.5172114155053795,0.7698125501464133,9.714658071133252
1520621016.8776078,0.0244602569895327,-0.0148089818052588,-0.0069494917557908,0.5172114155053795,0.7578211459122846,9.784398401778898
1520621016.882622,0.0239598939406284,-0.0165727829325235,-0.0012804330071798,0.5821500720048929,0.7698074925083251,9.734944589262176
1520621016.887638,0.0191912810505884,-0.0145458883627823,0.0028021847706608,0.5677192594494455,0.7806008802386161,9.69207519957994
1520621016.892654,0.0169335433437861,-0.014559886221878,0.0076762114063248,0.5160088477924256,0.7722109246532036,9.71234314960274
1520621016.8976688,0.0166874272774311,-0.01399178424419,0.01309204221824,0.5063883060887939,0.7410340229241856,9.698521465424012
1520621016.902684,0.0169368325408168,-0.0160342912039698,0.0141581974814065,0.529237092634919,0.7158502944931882,9.661135018941147
1520621016.9076998,0.0156791034555039,-0.018079574190203,0.0160387907719046,0.4498676235799582,0.7362418632488702,9.665374105760693
1520621016.9127169,0.0161769535027045,-0.0201125130905597,0.0135873826650838,0.4558804621447281,0.7254491311383314,9.66416396057759
1520621016.917732,0.0209486399799622,-0.0221496056952501,0.0132924074298603,0.4438547850151885,0.7446363145125833,9.63520870285838
1520621016.922747,0.0232147281449029,-0.0192363311845817,0.0138515295653168,0.4558804621447281,0.7650207651109562,9.602531742808738
1520621016.927763,0.0237197878185588,-0.018073509888598,0.0149416720436174,0.4414496495892807,0.7973986804626787,9.565452024791098
1520621016.932777,0.0285015889537699,-0.0142901962581087,0.017396617473598,0.4065751859136161,0.8357738901508639,9.513457574631612
1520621016.937794,0.0340291477957901,-0.0163335493757844,0.0195351551316717,0.382523831654537,0.8309792016565043,9.514858497071357
1520621016.94281,0.0380513364889268,-0.0154585489363066,0.0198049027111606,0.3548647742565962,0.8105959686376711,9.501201864685774
1520621016.947825,0.0455922341171156,-0.0151693097602379,0.0216869453696392,0.3320159877104711,0.7950089226726311,9.550249508245322
1520621016.95284,0.0543916488223375,-0.0137154970594248,0.024116638544802,0.3668904513861356,0.7578328534078589,9.545297735308823
1520621016.957855,0.0614366370231223,-0.0081800764410319,0.0254985383935933,0.3789161285156752,0.7542344955379744,9.54518419276231
1520621016.962872,0.0664705720332358,-0.0041067366898436,0.0284963319774147,0.3404339617011487,0.7602331947739057,9.546715051825922
1520621016.967892,0.0737646126574431,-0.0011980489479518,0.0314810327105558,0.35606734196955,0.7314526070324571,9.584941700723602
1520621016.972903,0.0823123325716509,-3.5719229973374574e-05,0.0339089695236803,0.40777775362657,0.6750889797535746,9.591466205967322
1520621016.977918,0.088848607265393,0.0008366236095821,0.0355267793499622,0.4149931599042937,0.6738892773703742,9.594883576830672
1520621016.982933,0.0978970352042059,0.0014200233393973,0.0365966070664187,0.4234111338949714,0.6834817451379249,9.55992796809512
1520621016.9879498,0.1051774014452603,-0.0026506773834519,0.0343875817300063,0.4306265401726951,0.6906760257186146,9.52382425914027
1520621016.992965,0.1081837979582388,-0.0073021787497564,0.030829315039081,0.3969546442099844,0.7098648949722293,9.556673322010344
1520621016.9979808,0.1154662341849775,-0.0090381610989235,0.0272853449056392,0.3885366702193067,0.7290517973665873,9.612519457779852
1520621017.002995,0.119734182172375,-0.0107789670699298,0.0250997049309594,0.3801186962286291,0.7614292444184869,9.64627199568745
1520621017.0080109,0.1197345859985627,-0.0075606255104875,0.0202543327431426,0.3945495087840766,0.7830126481203434,9.679812661576191
1520621017.013026,0.1235027119933937,-0.0057984581854522,0.0156613901756094,0.4378419464504187,0.8405680166854359,9.674686575443989
1520621017.0180418,0.1245130979367433,-0.0023029068979064,0.0162272920980416,0.4655010038483596,0.8777392156320492,9.661597526133034
1520621017.023058,0.1242696712920734,0.0023540480657634,0.018157149457575,0.4883497903944848,0.8813348573629605,9.676479493448031
1520621017.028074,0.1230186343696644,0.0070186219490125,0.0171128688552801,0.5003754675240243,0.8777364994930759,9.711230269528096
1520621017.033089,0.1217693929726399,0.0099210484782158,0.021195621763251,0.531642228060827,0.8813314856042351,9.703949566317949
1520621017.038105,0.1167460508941997,0.0099103381945685,0.0244515069794922,0.5244268217831033,0.8981200134918029,9.678436258914187
1520621017.0431209,0.114493284272449,0.0133922262319197,0.0296227565347726,0.4979703320981162,0.8297710698764903,9.684571142263891
1520621017.048136,0.1099732455321117,0.0145501646927986,0.0318044170621046,0.4871472226815307,0.854953861707842,9.741596985404223
1520621017.05315,0.1062059624473567,0.01600488206507,0.0320930792336236,0.4967677643851623,0.8201780401491519,9.768266566738092
1520621017.058167,0.1034405776176628,0.0160074412094505,0.0307454837101019,0.4438547850151885,0.7770131059447307,9.761850821708522
1520621017.0631828,0.098663528025559,0.0157207419064759,0.0283172153038363,0.4210059984690635,0.7926037109884254,9.788787327317417
1520621017.068197,0.0933759223469344,0.0113624750520634,0.0228827522948656,0.4558804621447281,0.7890035735792136,9.77915423706505
1520621017.073214,0.086590332565863,0.0134104349095053,0.0188527269818399,0.4426522173022346,0.7734157783344568,9.80951393690568
1520621017.078229,0.0800572726216196,0.016039805414939,0.0153677729079645,0.4751215455519912,0.7686166878217612,9.783635410746353
1520621017.0832438,0.0740261477775897,0.0172080796085849,0.0134940453364059,0.4847420872556228,0.8009927299741919,9.739348727874871
1520621017.088261,0.0669875420217085,0.0175054485535243,0.0102627859224977,0.4943626289592545,0.8213773678924939,9.76364023169482
1520621017.0932748,0.0571845158478351,0.0172167801397161,0.0078438519816586,0.5003754675240243,0.7961949507010007,9.810092020705696
1520621017.098291,0.0483887941658316,0.0175069040162535,0.0070507726937607,0.50518573837584,0.8033894186016196,9.767038858138385
1520621017.103306,0.0421072486604897,0.0186721660300864,0.0062596954290784,0.503983170662886,0.7985929505679328,9.771703816368689
1520621017.1083229,0.0343124568897146,0.0166352496657865,0.0040942350861123,0.4895523581074387,0.805788917027985,9.774161548918745
1520621017.113338,0.0272752624936854,0.0192695222776116,-0.0012836068125289,0.481134384116761,0.8273741002691689,9.819546050421776
1520621017.1183538,0.0169677960821569,0.0195721671801194,-0.0069437118870211,0.4727164101260834,0.7949979644567735,9.844064581015104
1520621017.123369,0.0099255443571509,0.0192962366743546,-0.0136965141182645,0.4943626289592545,0.8333687721266227,9.863572918365168
1520621017.1283848,0.0023833765313911,0.0201820052113389,-0.0190867610822207,0.5352499311996888,0.8273698855707621,9.87828866454777
1520621017.133399,-0.0054128618569365,0.0190279836017313,-0.0244921029200728,0.4967677643851623,0.8081866359150232,9.881006223689845
1520621017.1384149,-0.0121974832941751,0.0219508254721197,-0.028786004873071,0.5184139832183335,0.8285703372336792,9.833127751783945
1520621017.143431,-0.0189863270145766,0.0222533918900755,-0.0339115522815591,0.5027806029499322,0.8273724143898062,9.846064670353144
1520621017.148447,-0.0242659624684642,0.0263569312242417,-0.0436102801509715,0.4534753267188202,0.8165839906376388,9.822150078681268
1520621017.153462,-0.0307949294954326,0.0324851013503935,-0.0478801948888355,0.457083029857682,0.826176833045048,9.84883491974503
1520621017.158478,-0.034312313314558,0.0359934490595452,-0.0527168098655442,0.4630958684224517,0.8333712072857022,9.791824324670666
1520621017.163494,-0.0385833270249111,0.0406714100976502,-0.0591664077066079,0.4462599204410964,0.8213811142910777,9.758297714180776
1520621017.168509,-0.0425981178752178,0.0476747183610975,-0.0634343204212564,0.4498676235799582,0.7890040418790365,9.760618459079677
1520621017.1735249,-0.0473654017172001,0.054087677892656,-0.0649998201776978,0.3981572119229384,0.845367669157919,9.75990467360705
1520621017.17854,-0.0488703719720269,0.058760894493177,-0.0692901848075361,0.4186008630431554,0.8441669365151081,9.7260046823147
1520621017.183555,-0.0491196870593563,0.0616811971901745,-0.07170240029428,0.4450573527281425,0.7950001186359592,9.783902311693517
1520621017.188572,-0.0491146728523422,0.0648842416971929,-0.0708663086681709,0.5136037123665177,0.8393629756842536,9.770408274428569
1520621017.1935868,-0.0478578258669367,0.0654689598916227,-0.0714052879057108,0.553288446893998,0.8729358167609823,9.750232818845786
1520621017.198602,-0.0468487219175514,0.0657490833439974,-0.0670761973790667,0.5208191186442414,0.9005185753185224,9.731927657299046
1520621017.2036169,-0.0445844018845567,0.0642777497549842,-0.0614100495011307,0.5821500720048929,0.9053103603539796,9.70111027925461
1520621017.208634,-0.0410669278893751,0.0616471977830502,-0.0579194947479995,0.5172114155053795,0.9400904902710407,9.717978456822458
1520621017.213649,-0.0360364311028353,0.0607560741042422,-0.0509013051759226,0.5256293894960572,0.9328949921108116,9.73417355282204
1520621017.218665,-0.0302541038825834,0.0589940059344518,-0.0449733686131934,0.4775266809778992,0.936496159779634,9.705584648205862
1520621017.22368,-0.021712194031372,0.0549070435747515,-0.040962171960234,0.4667035715613136,0.9281030197554252,9.710346754905322
1520621017.2286968,-0.0129159038995924,0.0537369386677929,-0.0380113947610551,0.4270188370338331,0.9532880594259272,9.703735601917831
1520621017.233711,-0.0061279344148363,0.054900764490183,-0.036391828572735,0.381321263941583,0.9616856014684718,9.737874383359635
1520621017.2387269,-0.0003433137348249,0.0569361647790817,-0.0339520885476972,0.3452442325529645,0.9365064623757392,9.73360151535979
1520621017.243742,0.0049366471655872,0.0595636068153642,-0.0350240655522135,0.3644853159602277,0.935305823392893,9.776414730102328
1520621017.248757,0.0109688775835997,0.0613186474985288,-0.0366452037742751,0.3656878836731817,0.9029289383007808,9.792704612564712
1520621017.253773,0.0167457593772114,0.0592819487160051,-0.0369420459025838,0.3632827482472739,0.89453514265682,9.760196177334176
1520621017.258788,0.0207668464284964,0.0586971127947472,-0.035601230166038,0.3692955868120435,0.9221149040954932,9.71013856721788
1520621017.263804,0.0230219848896698,0.0555000534050786,-0.0383353435728977,0.408980321339524,0.9053238473888812,9.784145884175334
1520621017.268821,0.0257848175278284,0.05345707413858,-0.0367327637506419,0.4582855975706359,0.8573543903938179,9.831360652554826
1520621017.273836,0.0280454915916984,0.0514124410988625,-0.0345881586900411,0.4450573527281425,0.8873339312387503,9.855865197732872
1520621017.278851,0.0270333453806649,0.0464592387437844,-0.03489463014312,0.429423972459741,0.9161145189801988,9.875745746546148
1520621017.283866,0.0280358512753336,0.0423707795799692,-0.0314105235838235,0.3945495087840766,0.9257103585064752,9.86794083078898
1520621017.288882,0.0247634230302248,0.0382901162758269,-0.0314355793756305,0.3692955868120435,0.9281106062125576,9.912345768555758
1520621017.293901,0.0202375820911532,0.0371257196911763,-0.03251825428159,0.3211928782938855,0.9077289654131224,9.915158137488492
1520621017.298914,0.0172204985383142,0.0353733173366475,-0.0314438085305868,0.3031543625995763,0.9029338086189398,9.942067701638925
1520621017.303928,0.0111953131231686,0.0409123594396867,-0.0332841898225016,0.3392313939881948,0.8897404541624604,9.948702276403198
1520621017.308945,0.0044125342654081,0.0432436910826757,-0.0343359871953041,0.3512570711177343,0.8645575686711442,9.931177622649892
1520621017.3139598,-0.0038733330778695,0.047900409193283,-0.0334733782746934,0.2911286854700368,0.8561682687054839,9.938743924571268
1520621017.318976,-0.013917057284896,0.0546012288236234,-0.034485761965325,0.3260031491457013,0.841775867485556,9.930283502326368
1520621017.3239908,-0.0227067964160527,0.0589692792201256,-0.0347066262670862,0.3380288262752409,0.8237878245347171,9.91623826440022
1520621017.329006,-0.0304923556287818,0.061292204299202,-0.0327805518918899,0.3308134199975172,0.8513686162330008,9.865147265950396
1520621017.3340209,-0.0380202414317811,0.066521060365003,-0.0278567085319555,0.3151800397291158,0.8597638167764305,9.873426253988722
1520621017.339038,-0.0463041799516553,0.0700005854693538,-0.0226742576181635,0.333218555423425,0.8765503778047419,9.816289253636096
1520621017.344053,-0.0523266485516774,0.0734817251046476,-0.0177665531097145,0.3536622065436422,0.8861419089726467,9.846296655772548
1520621017.349068,-0.058597953965309,0.0781253906693001,-0.011767305953151,0.3127749043032078,0.8801493912943785,9.83391689089088
1520621017.3540828,-0.0636100758118131,0.0868584014976428,-0.0092563658653259,0.3055594980254842,0.863361987326386,9.74916698332094
1520621017.359099,-0.0691310444633788,0.090343380199359,-0.0057023242829257,0.2983440917477604,0.8873453577544309,9.744565251057626
1520621017.364116,-0.073399035572739,0.0923770275597938,-0.0040555530147388,0.2550516540814183,0.8765564657024405,9.78334790763145
1520621017.3691308,-0.0771648249858478,0.0941194873040191,-0.002411938278404,0.2550516540814183,0.880153886972679,9.762425808437756
1520621017.374145,-0.0809354521859892,0.0929510154995867,-0.0018727379787701,0.2971415240348065,0.8957394343782855,9.806162400312918
1520621017.379163,-0.0839469962040007,0.0938145180110837,0.0016566286031304,0.2971415240348065,0.8597652216758995,9.78992746513134
1520621017.384176,-0.0854519782552207,0.0940972990633806,0.0046376568829815,0.3019517948866224,0.8849467959277113,9.795666808552488
1520621017.389193,-0.0854537463871667,0.089712690963699,0.0097446826254611,0.2754953052016353,0.9041351032215384,9.784284170823678
1520621017.394209,-0.0846983601603861,0.0885372501862031,0.013522032657026,0.2550516540814183,0.9305177847560197,9.807700310403815
1520621017.399225,-0.0877163728672263,0.0841536459132247,0.0178230213910578,0.261064492646188,0.9521018440776284,9.79367500956456
1520621017.404239,-0.0879674208288012,0.0794695420889626,0.0259042956264126,0.2935338208959448,0.9449044727181072,9.820095300023588
1520621017.409255,-0.0887277468150639,0.0724658200323589,0.0296399842914138,0.2863184146182209,0.9293162091735274,9.805072860367543
1520621017.4142709,-0.0894841171142014,0.0669124647326094,0.0358217014460739,0.3091672011643459,0.9341109913278516,9.76068431667812
1520621017.419287,-0.0892358684110231,0.0593125272532983,0.044691449069494,0.3248005814327473,0.90413126316299,9.762885672334258
1520621017.424302,-0.0889890663253974,0.0525954845286796,0.050321315198028,0.2959389563218526,0.8861464046509472,9.78061629309052
1520621017.429318,-0.0874824259789428,0.0485021232584731,0.0556983095820905,0.2201771904057534,0.9041394115799096,9.776687595739755
1520621017.434332,-0.0897493609860906,0.0409084855344233,0.0618672654792114,0.1913155652948588,0.8921502551849313,9.716548724867089
1520621017.439349,-0.0887437344501105,0.037980465462305,0.0672540856510549,0.2382157061000629,0.893345742869725,9.727712497869405
1520621017.444365,-0.0902525036327362,0.034178035683959,0.0723683579037816,0.2045438101373522,0.8861535228082564,9.737344407118592
1520621017.449379,-0.0910104107254825,0.0286297794016841,0.0766562537871331,0.185302726730089,0.8945490043315801,9.775874253135894
1520621017.454396,-0.0932746563109451,0.0251249946636163,0.0793392362318723,0.2237848935446154,0.87655890086152,9.775517231418998
1520621017.459411,-0.0927714902029921,0.0242452105442785,0.0814960006966108,0.1997335392855366,0.8405865613584257,9.76765140504548
1520621017.464427,-0.0915117499824816,0.0230641392293236,0.0874367844488429,0.1792898881653193,0.7818302728305933,9.753961961177334
1520621017.469441,-0.092517615721061,0.0186754951521362,0.0938984065639139,0.16125137247101,0.7434591841808502,9.727445644932676
1520621017.474457,-0.0935242223972669,0.0163381976630839,0.0960468559417324,0.1564411016191944,0.7362647162802314,9.72517519328544
1520621017.4794729,-0.0927680442466351,0.0157455259401738,0.0998286521439165,0.1672642110357798,0.6763068521699065,9.71002044333524
1520621017.484488,-0.0922661953903468,0.0148701124072429,0.1003621412332476,0.1564411016191944,0.6439309036774403,9.7334002400872
1520621017.489504,-0.0915118206293616,0.0131126310062292,0.1038644991982921,0.1239717733694376,0.675111083505219,9.744145169378193
1520621017.49452,-0.0925137228165538,0.0131013107180453,0.1079245545298959,0.1600488047580559,0.6918962396340613,9.724021199714182
1520621017.4995348,-0.0910097130412976,0.0104801691367272,0.1076312005265804,0.1768847527394113,0.7122803155925759,9.686648843621956
1520621017.504551,-0.09025221370687,0.0113466053434851,0.1106124744676088,0.1804924558782732,0.7734361962067385,9.702824107510011
1520621017.5095658,-0.0864825587826923,0.0101767166188963,0.1127609484445105,0.1841001590171351,0.8058127066589922,9.706243852043649
1520621017.514581,-0.0849806150609894,0.0066843351799707,0.1113787416016613,0.1997335392855366,0.8249977358540583,9.744423727371345
1520621017.519597,-0.0812161428995453,0.0049462460221523,0.1081118514899192,0.2081515132762141,0.8333910631981963,9.724577159379889
1520621017.524613,-0.0797167043152839,0.0005840815877549,0.1050997000157339,0.1780873204523654,0.8417873876612012,9.758563775088152
1520621017.529628,-0.0759518832460078,-0.0020332601694167,0.1037199619193716,0.2105566487021219,0.8693650885806532,9.760545131670336
1520621017.534643,-0.0719311019805921,-0.0020316848807498,0.1037124943470305,0.2598619249332341,0.8693612485221048,9.776335239715928
1520621017.539659,-0.0699177200724609,8.066023566023414e-06,0.1039948680539283,0.2935338208959448,0.8681594856196834,9.728360765352258
1520621017.5446749,-0.0679077685236413,1.0310530035093426e-05,0.1034500424759553,0.2706850343498195,0.8969406353209195,9.693690778655792
1520621017.54969,-0.0641390348892027,-0.0008638230808539,0.1039774641627591,0.2742927374886814,0.9005377756112645,9.715732890598929
1520621017.554706,-0.0573510693365776,-0.0011634757745385,0.1080208279876424,0.2791030083404973,0.9029356818182316,9.724980883328474
1520621017.559722,-0.0573492306892305,-0.0032184645180126,0.1136867302044011,0.3139774720161619,0.9149243699133872,9.70719758398633
1520621017.564738,-0.0540778688282727,-0.0038174359961839,0.1201693181328844,0.3115723365902539,0.9077297146928393,9.756038056211883
1520621017.569753,-0.0498043029263845,-0.0064549769121709,0.1263639316752139,0.2694824666368656,0.9197243970257288,9.820353957276357
1520621017.5747678,-0.0480429765134924,-0.0082178919395604,0.1320287899143831,0.2514439509425563,0.9281197848890878,9.841439938923948
1520621017.579784,-0.0452786972577812,-0.0111437659607513,0.1368712512315248,0.2947363886088987,0.930514693977188,9.850313369847855
1520621017.584799,-0.0442721023779684,-0.0131969040199231,0.1419941947633959,0.3211928782938855,0.9041315441428838,9.804757969855428
1520621017.589815,-0.0430115271116441,-0.0140880476697207,0.1484782933927401,0.2935338208959448,0.9065319791688952,9.83059201446755
1520621017.59483,-0.0397458380835328,-0.0178878783617069,0.1533131520074104,0.2911286854700368,0.8885450601376313,9.805065797676328
1520621017.599845,-0.0374875868453103,-0.022851455691828,0.157329347486224,0.285115846905267,0.8789524050501514,9.801647245809798
1520621017.604862,-0.0352260816677575,-0.026069639582463,0.1624410650605001,0.285115846905267,0.8249910859965721,9.8237806012062
1520621017.6098769,-0.0357318980075641,-0.0310350283546104,0.1667329403911995,0.3031543625995763,0.7962103109351943,9.75274230829443
1520621017.614893,-0.0344755410922717,-0.0330829689407659,0.1699615959284905,0.3115723365902539,0.7842182510813135,9.772428513513669
1520621017.61991,-0.0319573269166907,-0.0328066253415479,0.175911161490914,0.3368262585622869,0.7878137054922956,9.71407200160001
1520621017.624924,-0.0266786088204111,-0.0351509310459396,0.1815650394336655,0.3753084253768133,0.7818150062563642,9.702081846948428
1520621017.62994,-0.024670386213706,-0.0412896145446555,0.1890899059412281,0.3680930190990896,0.7854129894863904,9.678905690184854
1520621017.634954,-0.022909416572908,-0.0451002340048411,0.1977152074381436,0.3476493679788724,0.7974059859399172,9.676768694843163
1520621017.639971,-0.0156242204090831,-0.049186960211182,0.2014581918115583,0.3777135608027212,0.8165898912154083,9.67994379086717
1520621017.6449869,-0.0133638991851762,-0.051815819167621,0.2041394424933424,0.3921443733581686,0.7974025205212272,9.690281335206024
1520621017.65,-0.0063276300110171,-0.055617815181821,0.2103200297384492,0.3717007222379515,0.7842135680830837,9.698628191576551
1520621017.655018,0.0002043753454683,-0.0585363849213442,0.2129911230393113,0.3211928782938855,0.7878149230718353,9.674711272890102
1520621017.660032,0.0039735088739635,-0.0576556554888656,0.2110969701748616,0.2995466594607143,0.7518423962488119,9.698199923167648
1520621017.665048,0.0074920492532963,-0.055606572678486,0.2081299927913167,0.2995466594607143,0.7254613069337288,9.674982769546755
1520621017.670064,0.0127720140858395,-0.0515156521261287,0.2046342181502372,0.2682798989239117,0.7290611633630468,9.69271575230938
1520621017.6750789,0.0170467875341599,-0.0459616468798635,0.1987165127656798,0.3043569303125302,0.7422488982216505,9.735351064190953
1520621017.680095,0.0200627341874468,-0.0424492824644925,0.1933266711921143,0.3235980137197934,0.7170654507705467,9.6759189977472
1520621017.685111,0.021827106794118,-0.0380756400731039,0.1925451127211552,0.3729032899509054,0.7002736447842182,9.69521190840494
1520621017.690126,0.0250979080695618,-0.0348676734887047,0.192022407465231,0.3957520764970305,0.707466707785368,9.719387519335948
1520621017.69514,0.0273665915480003,-0.0302068202453467,0.1928654140084462,0.4366393787374648,0.724251489274352,9.685271001995604
1520621017.700156,0.0276276482629482,-0.0264340199874214,0.1985753112081255,0.4558804621447281,0.7182542885978542,9.681603135926377
1520621017.7051718,0.0273843470520352,-0.0241190677081117,0.2045455723237005,0.4618933007094978,0.6834787480190578,9.708307832429524
1520621017.7101889,0.028650246243374,-0.0209300995447411,0.2107902482514778,0.528034524921965,0.7026598434956111,9.744833951433094
1520621017.715204,0.0291609238315206,-0.020664013193738,0.2202606442467878,0.5496807437551363,0.7278401065079187,9.758544431743807
1520621017.720218,0.0311804921039187,-0.0204009782648239,0.2310809693819762,0.5593012854587678,0.7230427955345504,9.801454794955504
1520621017.725235,0.0306886559331344,-0.0189733897821551,0.241914854091116,0.529237092634919,0.7518245071955743,9.7854493418651
1520621017.73025,0.0301889515100625,-0.0207393762026232,0.2483955505274308,0.5136037123665177,0.7290420567302694,9.78097514922751
1520621017.735266,0.0309480307600615,-0.0201708804027685,0.2538095144462606,0.4907549258203926,0.7410352405037254,9.81140159471681
1520621017.740282,0.032460167519381,-0.0213554954175207,0.2611025609547276,0.4474624881540504,0.7254497867580836,9.796730306753552
1520621017.745297,0.0347262517521906,-0.019905699422927,0.2640854807267472,0.4378419464504187,0.7458359232358192,9.83283053101851
1520621017.750312,0.0347295488134834,-0.0184531473728694,0.2657198715287026,0.4751215455519912,0.7182527900384206,9.815062409758752
1520621017.755329,0.0349812827943291,-0.019917984295538,0.2686842942337968,0.5124011446535637,0.7482283971648399,9.827453903024708
1520621017.7603428,0.0362423912527289,-0.0184693105541789,0.271939626794803,0.4919574935333466,0.7554248319247153,9.791619410367662
1520621017.765359,0.035497064765546,-0.0155710577002989,0.2776447216316387,0.4775266809778992,0.7470319728804004,9.782470904785772
1520621017.770375,0.0347528830421774,-0.0115058098751119,0.2828176170179102,0.4979703320981162,0.7350389764268735,9.74741929359245
1520621017.77539,0.0372701367381877,-0.009177391256691,0.2841834639471799,0.4751215455519912,0.7170536496150077,9.837144314228166
1520621017.780406,0.0360230946927354,-0.0048187705220909,0.2885478781776001,0.4414496495892807,0.702666587013062,9.867701830688794
1520621017.785421,0.0357773745883061,-0.0039592840171101,0.2939659320748248,0.4546778944317741,0.6870767312490841,9.880371859974762
1520621017.790436,0.0357790015579711,-0.003086587297367,0.294513693122556,0.4498676235799582,0.6678908591143365,9.888572397307994
1520621017.7954528,0.032764164410798,-0.0022121583198529,0.2939848712659382,0.4486650558670043,0.659496969810411,9.883943711922292
1520621017.800467,0.0312558461084537,-0.0016256094121104,0.2923688424007779,0.4210059984690635,0.6630965452598353,9.890020139973444
1520621017.805484,0.0312542230709196,-0.0010348276157787,0.2893972837164835,0.3777135608027212,0.6595024957483222,9.933444356328646
1520621017.810499,0.0254717625526489,0.0001422862062224,0.2842765386708388,0.4029674827747541,0.6487082650783498,9.922749778608967
1520621017.8155138,0.0211953817953187,0.0010329768205876,0.2775274948248492,0.3536622065436422,0.5971490669301447,9.882604929112514
1520621017.82053,0.017419313100668,0.0010533529194966,0.2694181187968821,0.3175851751550236,0.5347965747116133,9.943448372065678
1520621017.825546,0.0123898277799236,0.0025265172218225,0.2626749212913256,0.3163826074420698,0.4952250343989531,9.933039369729372
1520621017.830562,0.0056019994574485,0.004874602779371,0.2554005683127948,0.3476493679788724,0.4412612801862945,9.916517643169456
1520621017.835577,-0.0009317974922903,0.0110187983890146,0.2451786438651035,0.3151800397291158,0.436467247311687,9.908703349370432
1520621017.8405929,-0.0069611894620746,0.01979147910392,0.2328114265714462,0.3043569303125302,0.3885024733148536,9.921639051944664
1520621017.845608,-0.0162613435174712,0.023599873328923,0.223929580876769,0.3368262585622869,0.3669154168743778,9.94691123052047
1520621017.850623,-0.0248094044752489,0.0262437532424472,0.2147668967751383,0.3428390971270566,0.3537244039170133,9.999162045909944
1520621017.855639,-0.0326035728778922,0.0274244500065218,0.2080266101402568,0.3380288262752409,0.3896989912592578,9.963147323377369
1520621017.8606548,-0.0378859369432965,0.0291954562602092,0.1988511893801702,0.381321263941583,0.4376612364370472,9.969652031501347
1520621017.86567,-0.0446731497619019,0.0318341979139828,0.1918496053828501,0.3981572119229384,0.4772315591701676,9.98688173182943
1520621017.870686,-0.0502022845873624,0.0356389699546363,0.1848545801104118,0.3789161285156752,0.5611728873685021,9.939339256861787
1520621017.875702,-0.0552293510145905,0.0385676000312911,0.1786635898232057,0.433031675598603,0.59234632367883,9.895782800196006
1520621017.880717,-0.0597488957526838,0.0438216757888299,0.1746538179391436,0.4883497903944848,0.6103291216716517,9.892902539603217
1520621017.885732,-0.0640171416616886,0.0490758500019105,0.1706435793318101,0.4967677643851623,0.6666880659523045,9.870684910133336
1520621017.890749,-0.0685397207971679,0.0525838038888954,0.1658088312481868,0.5111985769406099,0.6906697505009867,9.882142502213414
1520621017.895763,-0.0690387038117896,0.0578401833661689,0.1615210458958823,0.5136037123665177,0.6726824568298645,9.899568791502595
1520621017.9007769,-0.0700424407141978,0.061347330337534,0.1574914013741641,0.5520858791810441,0.6570906342066302,9.936398037642212
1520621017.9057949,-0.0723059296335097,0.0616451130756298,0.1547923660099033,0.5761372334401231,0.6522921993136868,9.964060068771945
1520621017.910811,-0.0753264396135293,0.0593186828393289,0.1526158148394726,0.5905680459955706,0.6546893562409374,9.932539382652411
1520621017.9158258,-0.0768404778028138,0.0555337354066103,0.1512369855905697,0.5797449365789851,0.6798721480722889,9.936106603898663
1520621017.920842,-0.0793542580175498,0.0549499817966077,0.1512372066526637,0.5821500720048929,0.7014564883737915,9.950007873129946
1520621017.925858,-0.0806152410421929,0.0511593053708883,0.1520222778476994,0.5689218271623995,0.7458257142996783,9.905931892938073
1520621017.930873,-0.0806159036001563,0.049698012148017,0.1536344377965589,0.528034524921965,0.7614177242428418,9.924908966713824
1520621017.9358869,-0.0803662356728639,0.0473619353677409,0.1555100076621194,0.5148062800794716,0.7842024225472969,9.933150512568304
1520621017.940903,-0.0811226412297019,0.0450283784895693,0.1563052608371604,0.4895523581074387,0.8153820404152881,9.944987355474954
1520621017.945921,-0.0813781662740844,0.0409445260655204,0.1578978797415049,0.4751215455519912,0.8489590961904235,9.912555043934944
1520621017.950934,-0.0811234841397779,0.0418114937922627,0.1606095412331747,0.4306265401726951,0.8501617020325265,9.899041234232836
1520621017.95595,-0.0826366441612859,0.0380236326352728,0.1603128955678767,0.4137905921913397,0.8345741877676636,9.878301715257107
1520621017.960966,-0.0823934841126539,0.0321967689760245,0.1599974212425124,0.4210059984690635,0.8093916769162055,9.921255367348898
1520621017.965981,-0.081144995449649,0.0269552534867321,0.1588728885069783,0.3741058576638594,0.7938065041504575,9.88453845942476
1520621017.9709969,-0.0819009619225988,0.0246202397464249,0.1602092334738217,0.3729032899509054,0.7950057382338349,9.922899745631163
1520621017.976012,-0.0826563991356041,0.0231615648811998,0.1607406100088902,0.4246137016079253,0.7734171832339257,9.889877445593196
1520621017.981026,-0.0841701315390192,0.0187902062385564,0.1607100640688743,0.429423972459741,0.7758150894408931,9.908422589956496
1520621017.986044,-0.0849281679976534,0.014120474124567,0.1633813538327472,0.4258162693208793,0.7734170895739612,9.910784331712712
1520621017.9910588,-0.0859398790569297,0.0077023363912786,0.1660397718080339,0.4691087069872215,0.7374395051128495,9.924343757309488
1520621017.996075,-0.0862020100202908,-0.0036770556811096,0.1716350020181572,0.4895523581074387,0.769814704325599,9.960139661771292
1520621018.0010889,-0.0854612351949265,-0.0173900438739455,0.1782927642363234,0.4871472226815307,0.7746114533391797,9.936915515442765
1520621018.006106,-0.0837081377385471,-0.0258577167533427,0.1849886750969769,0.5412627697644586,0.8081831704963331,9.889870288235825
1520621018.011121,-0.0814519604181399,-0.0346194909732206,0.1927636130093831,0.481134384116761,0.8477594874671877,9.907849112175183
1520621018.016137,-0.0791973708775663,-0.0460102818183449,0.2029534562171142,0.4354368110245108,0.8189836763839334,9.847890482841985
1520621018.021152,-0.0746818288806918,-0.0538853614593841,0.2064021285415875,0.4017649150618003,0.7902069287010332,9.83313841715906
1520621018.0261688,-0.0699059711064959,-0.0559362942543629,0.2112475253284875,0.3729032899509054,0.7614298063782745,9.82531239497575
1520621018.031182,-0.06336886136694,-0.05477402374965,0.2134086500318813,0.3584724773954579,0.7614309302978497,9.83242571937818
1520621018.0361989,-0.0565780260405173,-0.0492292319829173,0.211273919957228,0.3139774720161619,0.7410490085185208,9.815446525919912
1520621018.041215,-0.0510461508071469,-0.0463110353948679,0.2104742452106511,0.3308134199975172,0.6930820803425017,9.75024936726366
1520621018.046231,-0.0447643778955988,-0.0445500688076192,0.2066882730981084,0.3488519356918264,0.6595047435874724,9.789619427359703
1520621018.051245,-0.0362206567904787,-0.0445452644570664,0.206131312715081,0.3524596388306883,0.6271276711754311,9.82680449088518
1520621018.056262,-0.032453679491593,-0.045413570619413,0.204494367234675,0.3969546442099844,0.6487087333781728,9.834485363370447
1520621018.061276,-0.0239216098380352,-0.0512240734865653,0.199293664915135,0.4210059984690635,0.637914596368165,9.863315385150646
1520621018.066292,-0.0189049168005362,-0.0582160614618288,0.1995015222981797,0.4234111338949714,0.6331178473545844,9.851675212852602
1520621018.071308,-0.0133817566616605,-0.0631718029902978,0.201076737311355,0.3969546442099844,0.6870812269273847,9.855366535690402
1520621018.076324,-0.0055975304291202,-0.0713442715472661,0.2072225781070039,0.4246137016079253,0.7098627407930436,9.79348147237324
1520621018.081338,0.0026966011283706,-0.0725160302274436,0.2107153805445281,0.4378419464504187,0.7314462381548646,9.739873046751978
1520621018.086355,0.0104885270574791,-0.0748600798074864,0.2166351371504675,0.4751215455519912,0.7002656836872275,9.75813489609076
1520621018.091369,0.0167795167985489,-0.0745931858411602,0.2266358903023396,0.4270188370338331,0.6906763066985084,9.723748134435237
1520621018.096385,0.0268384090603746,-0.0740268746348058,0.2341969526273405,0.4222085661820174,0.7218543323471014,9.662170922266837
1520621018.101399,0.0376570039403311,-0.0696744545002221,0.2425971525792557,0.4246137016079253,0.714659302486695,9.6877216951823
1520621018.106417,0.0462076641437376,-0.0691072771649821,0.249619923452082,0.4246137016079253,0.6990704769823277,9.609873251659868
1520621018.1114318,0.0552606162194518,-0.0679534917087339,0.2552934775694787,0.3620801805343199,0.6978762068770737,9.611645227887502
1520621018.116448,0.0650660142327478,-0.067379994647243,0.2601495476587385,0.3199903105809315,0.6463164467690812,9.638834497397196
1520621018.1214628,0.0726172421287032,-0.0627345561831371,0.2674758545148856,0.2682798989239117,0.6079479805983469,9.654483105084363
1520621018.126478,0.0816739382138605,-0.0572027185068175,0.2704772959529138,0.2815081437664053,0.5743710184831758,9.681116401909708
1520621018.1314929,0.0919823416436522,-0.0519472044587263,0.2680632627712511,0.2646721957850499,0.5827663126865703,9.740541428990102
1520621018.13651,0.0995300176786702,-0.0455337911920322,0.2680981689499224,0.2225823258316615,0.6055532588301757,9.731631736885523
1520621018.141525,0.105063476759743,-0.0414500564948113,0.2673073865445839,0.1985309715725824,0.6283388000743122,9.760897219423786
1520621018.1465409,0.1123622258050951,-0.0347519130359763,0.2697798955949472,0.3007492271736685,0.6307291198241474,9.781980686079214
1520621018.151556,0.1176483456763357,-0.0277544315213682,0.2690118107659759,0.3019517948866224,0.6571101154792659,9.808672566506337
1520621018.156572,0.1229318192478537,-0.0251386443821706,0.2722685680958792,0.3392313939881948,0.6571072120203635,9.76879681531367
1520621018.161587,0.1282206559342179,-0.0201990653353079,0.2782485690672716,0.3368262585622869,0.6990773141597431,9.808292192996236
1520621018.166604,0.1342545015255023,-0.0219617634806244,0.2844465848026307,0.2923312531829907,0.7182670263530391,9.795922987159605
1520621018.171619,0.1370231363623952,-0.0216824077015935,0.2893135000581779,0.3007492271736685,0.7302577749674156,9.790018638601026
1520621018.1766338,0.1407936263323868,-0.022562368761025,0.2920052889121917,0.2911286854700368,0.7158688391661779,9.852882084651265
1520621018.181649,0.1448199863224615,-0.0217012085118356,0.297415408513804,0.2766978729145894,0.6870905929238442,9.837942738065523
1520621018.186666,0.149090956910852,-0.0260863281605121,0.3033261376483748,0.3055594980254842,0.6894866259315197,9.892280243881093
1520621018.191681,0.1498446651817428,-0.0307685813004718,0.3108644531988419,0.285115846905267,0.7050770436552851,9.984273400813404
1520621018.196696,0.1523516199355561,-0.0374796389077408,0.3145962975466255,0.2418234092389248,0.7230675217652035,9.957947931808963
1520621018.201712,0.155354880078699,-0.0491454934300411,0.3188305077894058,0.3091672011643459,0.6978803279155159,9.985208459674595
1520621018.206728,0.1596219772917585,-0.0570301411305035,0.3257967434838665,0.3043569303125302,0.7218635110236318,10.015447635925003
1520621018.2117429,0.1611214511337204,-0.0646121039864788,0.3281710559893004,0.2766978729145894,0.7386536311305976,10.014538337519094
1520621018.216759,0.1613614356226854,-0.0756970008962196,0.3326853922545857,0.2562542217943722,0.7290620999626928,10.100745330804552
1520621018.221774,0.1626135232007213,-0.0815358540614539,0.336967331266457,0.2213797581187075,0.7302639565250789,10.141758646499335
1520621018.22679,0.1673862172116433,-0.0844543845587011,0.3393711457343172,0.1925181330078127,0.6882962895447786,10.128134767276675
1520621018.2318048,0.1703971849156166,-0.0873648630719264,0.3385316765142617,0.1937207007207666,0.6918936171550527,10.1281195542025
1520621018.236821,0.1709034324750493,-0.085327888194064,0.3396284882484912,0.2009361069984905,0.7050835998528068,10.15941434789611
1520621018.241837,0.1721601422303048,-0.0867916028634981,0.342320498164599,0.1925181330078127,0.6463263747253283,10.202552907220436
1520621018.246852,0.1736691191584815,-0.0873803370644441,0.3447481647174629,0.2081515132762141,0.6643122634969815,10.200058913489713
1520621018.251867,0.1741722852664345,-0.0882601211837818,0.3469049291822013,0.137200018211931,0.6835040362094986,10.164704339810076
1520621018.256883,0.1721569235486751,-0.0917567947245622,0.3466114400487556,0.1203640702305757,0.6966958921065445,10.195071090677994
1520621018.261898,0.1711481606428596,-0.0958431278084396,0.3490170968106177,0.1516308307673783,0.7302693888030254,10.201706881437234
1520621018.266913,0.1718959844032219,-0.1007985546989971,0.3497895418782445,0.1708719141746417,0.7602464008289136,10.24100326149662
1520621018.271932,0.1703870897868394,-0.1022589817929829,0.3508634103749294,0.1624539401839639,0.7686410394125559,10.260833458738585
1520621018.2769449,0.1671221808861862,-0.102266817594635,0.3533043908405677,0.0842870388419572,0.820210165517008,10.28130045304028
1520621018.28196,0.1633497502963982,-0.1046000990771711,0.3535641529030621,0.1227692056564837,0.8405925555961598,10.249528125703476
1520621018.286977,0.160586035558332,-0.1040176846024761,0.3533031871337646,0.1516308307673783,0.8693696779189184,10.24108413252772
1520621018.291992,0.1568180938477447,-0.1025607819370012,0.3527802116175799,0.1384025859248849,0.9185354655384568,10.252786384781366
1520621018.2970068,0.1533033876539113,-0.0993540167900918,0.3517290160981788,0.1095409608139903,0.9209359942244328,10.214714216967865
1520621018.302022,0.1485310856727839,-0.0976075802816264,0.3517512223521915,0.0951101482585425,0.9257336798376592,10.248552174960336
1520621018.307039,0.1442579509905217,-0.0978984532599245,0.3509452958747907,0.0902998774067269,0.9557125650628394,10.203246147490251
1520621018.3120549,0.1409870674032838,-0.099057258549392,0.3479664660811659,0.086692174267865,0.9473188630788432,10.17656013708724
1520621018.317069,0.136962683290706,-0.0999249746781918,0.3449912595426648,0.137200018211931,0.9185355591984212,10.242338794249818
1520621018.322086,0.1326912618220341,-0.0999288337156038,0.3458108315259809,0.1552385339062403,0.9377204010735584,10.180550879401816
1520621018.327101,0.1279183874589996,-0.098765894692792,0.3460991375052755,0.1335923150730691,0.9353238061060952,10.213303939814123
1520621018.332115,0.1238976532476776,-0.0975968328548127,0.3442216761475464,0.0915024451196808,0.9125434161600114,10.230005849593857
1520621018.337132,0.1203777995488111,-0.0981780665627108,0.3431415805191208,0.0482100074533384,0.8861656986036538,10.19558863846212
1520621018.3421478,0.1145964328081299,-0.0984680734121233,0.3417973625895454,0.0049175697869963,0.9125501596774624,10.259902212512026
1520621018.347164,0.1090672469964446,-0.0972974170141907,0.3391110638837405,-0.0107158104814049,0.8633866198970744,10.213616562986038
1520621018.352178,0.1010244182001733,-0.0946620813623968,0.333193997086382,-0.0672364929902407,0.8454039155642172,10.200238513276188
1520621018.357194,0.096250014907792,-0.090567086289961,0.3267408865212417,-0.0924904149622736,0.8322153377659323,10.246982940361653
1520621018.3622088,0.0874587899692513,-0.0835598212332631,0.3203174743815384,-0.1177443369343065,0.7758577047247839,10.189176507780385
1520621018.367226,0.0781689309239207,-0.072175429298645,0.3114934289049105,-0.1345802849156618,0.7638676117301595,10.202135655459257
1520621018.372242,0.0681180911986263,-0.0663290956113525,0.303169636769017,-0.1153392015083987,0.7866497812155704,10.171710414300996
1520621018.377256,0.0590725800877046,-0.0598974137541041,0.2940367862229536,-0.132175149489754,0.7578717222931659,10.159118765736544
1520621018.382271,0.0490227988822992,-0.0522984023166474,0.2841030572235101,-0.1237571754990765,0.737485679475395,10.145110981658178
1520621018.387287,0.0377131323619713,-0.0484937094602491,0.2763071288986085,-0.0936929826752275,0.7518730230572345,10.164560770398248
1520621018.392303,0.0291679254494671,-0.0458592991506064,0.2706615414436938,-0.0624262221384246,0.779450817636651,10.147959528769356
1520621018.3973188,0.0206229812008696,-0.0435184586614599,0.2658253685911732,-0.0455902741570695,0.8094280169824685,10.160550007994557
1520621018.402333,0.0105687934280577,-0.0417587926669459,0.2601759122199577,-0.0455902741570695,0.8022331744419913,10.173340607526466
1520621018.4073489,0.0030270646861861,-0.0408744809920972,0.2553267570478039,-0.0732493315550104,0.7878456435402225,10.25962250850748
1520621018.412366,-0.0067771023193704,-0.0408666658611379,0.2510162249209657,-0.0371723001663919,0.8274144677139094,10.242962753260384
1520621018.417381,-0.0130661201150743,-0.042603594223149,0.2458741824687678,-0.0419825710182077,0.807029455155749,10.23373230061958
1520621018.422397,-0.0193561493765735,-0.044922563208678,0.2404571479500494,0.0157406792035821,0.8214146445584027,10.244777865382314
1520621018.427412,-0.0264006083174138,-0.0495816449519889,0.2382702796694832,0.0121329760647201,0.8765753850152886,10.180841273464058
1520621018.432426,-0.0326901593051932,-0.0536583907051568,0.2363570032856233,0.0049175697869963,0.9245415639115911,10.1913240258206
1520621018.437443,-0.0377253253230462,-0.0583130426487952,0.2328136717393803,-0.008310675055497,0.91135204951366,10.204249227669443
1520621018.4424589,-0.0445187951527983,-0.0638490932427143,0.2317018510632189,-0.0804647378327341,0.928145635039316,10.203773016351308
1520621018.447475,-0.0495544433765021,-0.0682094469347886,0.2270785590186805,-0.1021109566659053,0.9113593549908984,10.206324366024916
1520621018.452489,-0.052323564351377,-0.06965798297833,0.2235554809014011,-0.1369854203415699,0.8969723860489173,10.14508421515866
1520621018.457505,-0.0571040403706614,-0.0705187101630767,0.2178762155737015,-0.1947086705633594,0.8897820391867406,10.124734482726677
1520621018.4625208,-0.0581127444259901,-0.0690439705720839,0.211125550495804,-0.2079369154058528,0.8813890864824611,10.174843613753534
1520621018.467537,-0.0593780241813281,-0.0704788041231547,0.2027298459126744,-0.1730624517301882,0.8466112980645146,10.18964594936026
1520621018.4725518,-0.0644132685788442,-0.0716208162557867,0.1932611816803194,-0.1586316391747408,0.8346187699108107,10.151166431586413
1520621018.477568,-0.0669312200905184,-0.072190729675501,0.18812103072029,-0.1345802849156618,0.843010879675409,10.155572720900016
1520621018.482582,-0.0684454699574849,-0.0730479916450024,0.1816240603023596,-0.2151523216835766,0.8370214527759724,10.119174199841812
1520621018.487599,-0.0687050761227492,-0.0762402081415453,0.1767302469610032,-0.180277858007912,0.8406161579072378,10.097912654011758
1520621018.492614,-0.0677007981640033,-0.0744805806896042,0.172683530141257,-0.1886958319985896,0.868197043265486,10.0677519517943
1520621018.49763,-0.0687111291889971,-0.0738785378183543,0.1653851040156282,-0.1826829934338198,0.8082395537950194,10.051481878115586
1520621018.5026438,-0.068712528752456,-0.0718250059370158,0.1602602935906719,-0.2151523216835766,0.8094412230374763,10.08433677601798
1520621018.50766,-0.0687171352011513,-0.0703462303685171,0.1521550321401829,-0.2692678687665044,0.8058480164656445,10.131352769743676
1520621018.512675,-0.0714910429768341,-0.0720715823179954,0.1432188130195692,-0.2680653010535503,0.7854625356076612,10.073253745743536
1520621018.517691,-0.0702476860903381,-0.0752471825977965,0.1323701896287579,-0.2115446185447147,0.759077044274242,10.02973000724889
1520621018.522707,-0.067235036498344,-0.0731873702324831,0.1253459572532371,-0.2548370562110569,0.7374958884115358,9.974389527584211
1520621018.5277228,-0.0667374843727506,-0.0717069408907655,0.1166986705644029,-0.2788884104701361,0.7123158127191573,9.957216025523694
1520621018.532737,-0.0662372898795658,-0.0673082956897121,0.1064503393532573,-0.3197757127105702,0.708721575887715,9.968076801047909
1520621018.5377529,-0.069513830571126,-0.0658140461286958,0.0921285896995671,-0.3173705772846624,0.6823402992527026,9.96691697244433
1520621018.542769,-0.0680116045248611,-0.0622826048077441,0.0794368092762963,-0.352245040960327,0.6319791176083354,9.94987337201589
1520621018.547786,-0.0692733166907376,-0.0596314990971042,0.0686373148243899,-0.3330039575530636,0.6643544104810493,9.990329557350998
1520621018.5528,-0.0710356467051629,-0.0555236676610833,0.0578498692455741,-0.3293962544142019,0.7207137294015604,9.992563771145422
1520621018.557817,-0.0730495421447145,-0.0525858433761824,0.0486772734241986,-0.3305988221271558,0.731506086872241,9.984429944469069
1520621018.562832,-0.0755633968069826,-0.0481934786591039,0.0403283641636174,-0.3293962544142019,0.7938612952297457,10.001789593084949
1520621018.567847,-0.0758115631983667,-0.0426427024747246,0.0349601515897463,-0.2969269261644451,0.8322312599599133,10.001436137705449
1520621018.5728629,-0.076814112214998,-0.0382614019214809,0.0309371763239569,-0.2524319207851491,0.9005787986757571,9.934694192889951
1520621018.577878,-0.0793255127260493,-0.0356333698516514,0.0285269382613453,-0.22838056652607,0.9197631722510712,9.92514423069968
1520621018.582893,-0.0810797667426361,-0.0327231274917855,0.0296346197609453,-0.2223677279613003,0.9221609847980738,9.91113763928842
1520621018.58791,-0.0818297937867016,-0.0306873733226994,0.0310043110074326,-0.2247728633872081,0.9089706274604616,9.901876760499269
1520621018.5929248,-0.0861039438668902,-0.0330237654405901,0.0323471901000745,-0.22838056652607,0.8789923978550335,9.927508276142609
1520621018.597941,-0.0848554552038853,-0.0382652809298825,0.0312226573645404,-0.256039623924011,0.8238340925572272,9.938290577633868
1520621018.6029549,-0.0838631894009268,-0.0458321436445172,0.027916439502591,-0.2644575979146886,0.7938562375916576,9.884943124616017
1520621018.607972,-0.0866390848504997,-0.0519413752626093,0.0238167002285557,-0.307750035581031,0.7698768008821255,9.893522901111888
1520621018.6129858,-0.0874001439101268,-0.0539667936989284,0.018391620883178,-0.3582578795250966,0.7255125389343623,9.866166324132772
1520621018.618003,-0.0861534429082443,-0.0545192048020258,0.0072924593642516,-0.4231965360246099,0.6715562775188711,9.88776960862197
1520621018.623018,-0.0894359269608199,-0.0588592016664775,-0.0046388389325191,-0.4376273485800575,0.6571677163574918,9.923950563950871
1520621018.628034,-0.0901961391782399,-0.0562042568894152,-0.0167919963104743,-0.4123734266080245,0.670356294155777,9.93298904666793
1520621018.633049,-0.0914565772144143,-0.0532646803757537,-0.0265070840934662,-0.3462322023955573,0.6955330917493945,9.9055914014932
1520621018.6380649,-0.092211477303213,-0.0509200593337473,-0.0316282712632989,-0.3161680095717085,0.7219118395653628,9.876219450763571
1520621018.643081,-0.0952325518008776,-0.0509030300235523,-0.0383863179815739,-0.3438270669696492,0.7698796106810633,9.813686119963558
1520621018.648097,-0.0972487446323198,-0.0532261527134152,-0.0416469196286948,-0.3185731449976163,0.7746742055154583,9.765787734298623
1520621018.653111,-0.0985052818997248,-0.0529338036016951,-0.0421834547188311,-0.3173705772846624,0.8226397287920085,9.701811338190158
1520621018.6581268,-0.1002633191155862,-0.0526452935563974,-0.0413663268829186,-0.2933192230255834,0.8262352768629553,9.694600865318568
1520621018.663142,-0.1015129094204426,-0.0488636144278407,-0.0391707259903275,-0.304142332442169,0.8070498730280307,9.691238488391743
1520621018.668158,-0.1010017809520147,-0.0442085493907492,-0.0364306311129044,-0.3618655826639585,0.808253509129744,9.645313403592189
1520621018.673174,-0.0987381508704219,-0.0409944207489064,-0.0393863825388544,-0.3534476086732809,0.8094519939334048,9.60106882859763
1520621018.678189,-0.0997404411552776,-0.0383701685322337,-0.0401761455656865,-0.3534476086732809,0.8046554322397533,9.59874921804619
1520621018.683204,-0.0972279742600752,-0.0363185658197496,-0.0442234396397511,-0.3618655826639585,0.799859526165854,9.532593625407683
1520621018.68822,-0.0944663647653939,-0.0360159002465489,-0.0480139930530433,-0.3462322023955573,0.8070531511267915,9.542893739226615
1520621018.693236,-0.0911984645893172,-0.0339691011849143,-0.0501688660256132,-0.3630681503769124,0.7914656368619285,9.523316364205105
1520621018.698251,-0.0854223707874258,-0.0351250905059491,-0.0528939519611042,-0.3390167961178336,0.8142474317074813,9.496330734683797
1520621018.703266,-0.0809003522374604,-0.0348261063303635,-0.0550644970618883,-0.2969269261644451,0.855014928004758,9.488908436449073
1520621018.708282,-0.0743680332308435,-0.0354041302476621,-0.0558927157252655,-0.2716730041924122,0.905376858928842,9.493262093832511
1520621018.7132978,-0.068846229533464,-0.038599181284221,-0.0589034424305536,-0.2019240768410832,0.9293542351191528,9.53439699612668
1520621018.718313,-0.0638224954252292,-0.0397605649893555,-0.059733306924922,-0.1646444777395106,0.923355629543186,9.507310675126677
1520621018.7233288,-0.0588049242199538,-0.0467554666888903,-0.0584432659582724,-0.1429982589063394,0.9365444883213648,9.498952113699724
1520621018.728345,-0.0535389200272566,-0.058131235877226,-0.0533993954519206,-0.1550239360358791,0.9569308121190298,9.50021142945096
1520621018.7333589,-0.047267763640168,-0.0692137698539665,-0.048896260545147,-0.0912878472493197,0.9377396013663004,9.519366218110086
1520621018.7383769,-0.042001492851433,-0.0794196303467238,-0.0454667730729643,-0.0924904149622736,0.9401379758730906,9.425241924196266
1520621018.743391,-0.0359813255754326,-0.089625195472856,-0.0420386857705956,-0.1141366337954445,0.9365422404822146,9.35572748597654
1520621018.7484078,-0.0289480868665285,-0.0937098348415352,-0.0391068723616132,-0.1694547485913264,0.9161611616425672,9.329556486392352
1520621018.753422,-0.0216615655867768,-0.0948739746021336,-0.0385882078859174,-0.2103420508317608,0.9233591886218406,9.3148395708705
1520621018.758438,-0.0141238317218618,-0.0954523331283333,-0.0391477475464787,-0.2163548893965305,0.9173639548045994,9.281201768176526
1520621018.763454,-0.0073326866774387,-0.0890304740554506,-0.0423579919488082,-0.2392036759426556,0.9401494023887712,9.255834779810062
1520621018.7684689,0.0019731559393284,-0.0837840950023398,-0.0415236074865708,-0.2644575979146886,1.0097015138059744,9.210689150103986
1520621018.773486,0.0120315817238274,-0.0770695714801224,-0.0447376962061179,-0.2548370562110569,0.9905145177516516,9.14669630159852
1520621018.7784998,0.0200780761498787,-0.0718142151008385,-0.0474180747742399,-0.2067343476928989,0.9929090521998936,9.100902146448425
1520621018.783515,0.0298879669745065,-0.0659870553752619,-0.0457685399002223,-0.1911009674244974,0.9989035367374182,8.996151178138911
1520621018.7885308,0.0384391682342507,-0.0601531036167157,-0.0468221303688604,-0.2115446185447147,1.003701690650468,9.132316329384798
1520621018.793546,0.0479876416397054,-0.0616099270979352,-0.0454982518002123,-0.1550239360358791,1.0240826758301504,9.135232744828174
1520621018.798562,0.0587978860615234,-0.0601567836149243,-0.0425312006194176,-0.054008248147747,1.0312696509336017,9.10635104915161
1520621018.803578,0.0633280786496457,-0.0572506357461266,-0.0390002741384895,0.0193483823424438,1.01807339301822,9.064974865043686
1520621018.808594,0.0741383191393327,-0.0572609707791904,-0.0336094253211317,0.0433997366015228,1.0216689410891666,9.035683657041933
1520621018.8136098,0.0804221423759099,-0.0604826783986331,-0.0266113540478881,-0.008310675055497,1.014478125927167,8.969951785113272
1520621018.818625,0.0872008243842643,-0.0677762881784149,-0.0223507983745338,-0.0191337844720824,0.9821021774347009,8.953818687421782
1520621018.8236408,0.0949828081432698,-0.0771121095513513,-0.0170254876078269,-0.0022978364907271,0.9197455641777272,8.915364871783567
1520621018.828656,0.1042749645804909,-0.0832355545112056,-0.0141134363054535,0.0097278406388121,0.9437274360463388,8.907089426754775
1520621018.8336709,0.1100498626323434,-0.0881926544462685,-0.011997596223747,0.0229560854813057,0.9689083546783984,8.909260402918283
1520621018.838687,0.1180911154451744,-0.0890665711750846,-0.0109370170407531,0.0205509500553977,1.003683614277301,8.90111489451336
1520621018.843703,0.1248777245563031,-0.0876055333768591,-0.0114795949343333,0.0554254137310623,0.9976851960212632,8.928672749474504
1520621018.848719,0.1288993918537574,-0.084679914780314,-0.0152524741961958,0.1095409608139903,1.0048758238633335,8.960679036617961
1520621018.853734,0.1334288003822906,-0.0794295789339527,-0.0165735891590132,0.086692174267865,1.014470726789964,8.967864941701377
1520621018.858749,0.1354442993301999,-0.0738844725293084,-0.0195110891792151,0.1035281222492203,1.0108719942802211,8.973515298700253
1520621018.863764,0.1387140970041104,-0.0683315895362777,-0.025156381774786,0.1359974504989771,1.009670325037764,8.947633264523173
1520621018.8687809,0.1367035378156832,-0.0656975331068225,-0.0297319204511501,0.137200018211931,1.014466793071451,8.968535473285693
1520621018.873796,0.1382090961809414,-0.0639333381573911,-0.0354028460928464,0.1359974504989771,1.0180643080016545,8.962732950553272
1520621018.878811,0.1369535351216312,-0.0598391500005751,-0.0410508530960814,0.1035281222492203,1.046846206982607,8.968831642705887
1520621018.883826,0.1336878029715573,-0.0557464779191604,-0.0464245804172447,0.0975152836844506,1.0276604285078244,9.01190820372212
1520621018.888842,0.1311736425234198,-0.0507677019921571,-0.0561217729867129,0.1552385339062403,1.033651634946588,9.057826272486174
1520621018.893857,0.1274037288674664,-0.0478407649309973,-0.0615034592025718,0.1504282630544244,1.0804184860995485,9.132204701551164
1520621018.898874,0.1223832055765992,-0.0446411463969481,-0.0601169413192338,0.2009361069984905,1.1151896246600086,9.109598443212858
1520621018.903889,0.1163517710145689,-0.0443499395094522,-0.0609151545631162,0.2562542217943722,1.1475621077337848,9.124136309862358
1520621018.9089038,0.1093204140749746,-0.0426131302736757,-0.0576421970488469,0.2863184146182209,1.1799365576668173,9.112190671749769
1520621018.91392,0.1012882095359459,-0.0405984420919935,-0.0494953234299605,0.2971415240348065,1.1823339955739618,9.122542283151404
1520621018.918936,0.0960159835898025,-0.0406172635729283,-0.0432629666355345,0.3175851751550236,1.2087134926696468,9.071183237743025
1520621018.923952,0.0887349469265226,-0.0409348131050998,-0.0345941860771363,0.2779004406275434,1.195526038790937,9.142473148544203
1520621018.928967,0.0789380639949534,-0.0427073561048813,-0.0270140372961778,0.3031543625995763,1.1247747869503208,9.127188461970135
1520621018.933981,0.068137306930826,-0.0430211849971617,-0.0202325438832898,0.2742927374886814,1.0864045412402596,9.104263923095973
1520621018.938999,0.0568295103834146,-0.0459547578218903,-0.0145523083752504,0.2791030083404973,1.0384385496638862,9.057778118271488
1520621018.9440138,0.0472826560833629,-0.0465521946530771,-0.0104808306230409,0.3031543625995763,0.9976659020685568,9.07385379003652
1520621018.949029,0.0364808013095149,-0.0468623813900184,-0.005052066689659,0.2863184146182209,0.9640912814525006,9.056618243012192
1520621018.954044,0.0291968674789989,-0.0468776199288799,-0.0004392514844697,0.2682798989239117,0.9461055800007764,9.057973502901548
1520621018.95906,0.023161649717694,-0.0492081453559522,-0.0015280183920397,0.2490388155166485,0.94610707856021,9.04653934426218
1520621018.964076,0.0136069702873172,-0.0532919984797044,-0.0012708602061625,0.2742927374886814,0.9449059712775406,9.041646131599602
1520621018.969091,0.008077431635669,-0.0527055679984931,-0.0034205132907841,0.25865935722028,0.9401106271634287,9.008100800017786
1520621018.974107,0.0025485986639467,-0.0509506856838391,-0.0066434576177723,0.2538490863684641,0.9317170188393972,9.062776571466538
1520621018.9791229,-0.0029812026516082,-0.0500706853821316,-0.009602525304788,0.2694824666368656,0.9413089246471604,9.093992937782916
1520621018.984137,-0.0070019760527618,-0.0471453036386491,-0.0144426530055732,0.2442285446648326,0.9545014361639584,9.11165804054941
1520621018.989153,-0.0112843785507704,-0.0485762196387455,-0.0247265781807555,0.2670773312109575,0.9485039545075667,9.139332946074816
1520621018.994169,-0.0138018008025001,-0.0482697941833777,-0.0306716975725598,0.3067620657384381,0.9856742168545342,9.142396861558666
1520621018.999184,-0.0173259590963236,-0.0494221420487767,-0.0360849737060243,0.2935338208959448,1.0048614938887506,9.16807407474418
1520621019.0042,-0.020355125320351,-0.0540614377267255,-0.0450429569564626,0.2574567895073261,1.020453129192056,9.226517222737678
1520621019.0092158,-0.0261475711306874,-0.0595832543081895,-0.0512970165478327,0.2887235500441287,1.049230064194885,9.251751994121424
1520621019.014232,-0.0306846205053019,-0.0651009364566061,-0.0589061392350656,0.3055594980254842,1.0899995273514185,9.259683373476502
1520621019.019247,-0.0352162636431078,-0.0685876680867862,-0.0632531495743166,0.285115846905267,1.113983928039074,9.22383251006996
1520621019.024262,-0.0402459724379274,-0.0685772538694671,-0.0678430953392111,0.2742927374886814,1.1379675794470128,9.245995203922966
1520621019.029278,-0.045776169715408,-0.0679886380950525,-0.0708043861115364,0.3151800397291158,1.125972990774088,9.222366046312588
1520621019.034293,-0.0518136730722103,-0.0711896749486644,-0.0732525517545413,0.2923312531829907,1.1127842256558735,9.248168472109256
1520621019.039309,-0.058353378125264,-0.0740995241860667,-0.0756975608656939,0.2346080029612012,1.0684205256678978,9.24063857269042
1520621019.044324,-0.0636363694909312,-0.0770096095768285,-0.0778743576973019,0.2297977321093853,1.0276501259117188,9.26048159767234
1520621019.049339,-0.0651467146569973,-0.0790506204321967,-0.0776165730589399,0.2430259769518787,1.0264499552286952,9.216192541130573
1520621019.054356,-0.0701686414434544,-0.0752609485328837,-0.078931067963995,0.2153669195539378,0.9856813350118432,9.218825802871304
1520621019.059371,-0.0744374205445348,-0.07234659171096,-0.0797125405029903,0.1768847527394113,0.9485109790049114,9.244803781186508
1520621019.0643868,-0.0764516727561804,-0.0714564718588552,-0.0859246930666193,0.1504282630544244,0.9317250735963524,9.216024064321903
1520621019.069402,-0.0794665922151477,-0.0685328815864094,-0.0899550499727861,0.1828975913041812,0.9221294213900052,9.242446693459431
1520621019.074419,-0.0822289818372871,-0.0650278806659717,-0.0934403356398025,0.1299846119342071,0.9185361211582088,9.189506602065856
1520621019.079432,-0.0834841430025406,-0.0591788294657882,-0.1015099171942911,0.0650459554346938,0.9137446171026457,9.155279033843298
1520621019.084448,-0.0827300582989006,-0.0544959855925783,-0.1090510330843862,0.0963127159714967,0.932928428718172,9.201441751116986
1520621019.089464,-0.0807214161374835,-0.051562413467553,-0.1160667293108929,0.1299846119342071,0.8981507339601902,9.202310064329511
1520621019.09448,-0.0799654809901032,-0.0445441227895931,-0.1252133358939187,0.1335923150730691,0.8849599083227546,9.208098531663072
1520621019.099495,-0.0774556917201928,-0.0421909375148668,-0.1330460494252909,0.1528333984803325,0.8909541118803855,9.245094010599017
