Time,angular_velocity.x,angular_velocity.y,angular_velocity.z,linear_acceleration.x,linear_acceleration.y,linear_acceleration.z
1520530962.7353706,-0.2031777680719764,0.0127797054114625,-0.0049627178880571,0.2105566487021219,0.1270971664880861,9.58113663976192
1520530962.7403867,-0.2051591477110126,0.0243905929947763,0.0113626930645708,0.1973284038596285,0.1306956180179353,9.61263977412878
1520530962.7454016,-0.2076382440992307,0.0386193738262358,0.0293323206069351,0.1732770496005495,0.1151086657128598,9.581511189903631
1520530962.750419,-0.2070904010084319,0.0621780115839748,0.045744210824543,0.1925181330078127,0.0959209203788204,9.333805956180136
1520530962.7554338,-0.200753934496403,0.0903930535141129,0.0651569406267775,0.1155537993787598,0.1414942507062436,9.30661918999867
1520530962.7604496,-0.1946914189550169,0.1040482402279464,0.0809418862400879,-0.03356459702753,0.0347823668581078,9.45344268246614
1520530962.7654648,-0.1893999516974544,0.1075155995859207,0.0925922355988582,-0.1429982589063394,-0.0623394843815565,9.642869879663651
1520530962.7704797,-0.1863820057053631,0.1034111741518794,0.1022951639777125,-0.1165417692213526,-0.1270951277650727,9.729836309308189
1520530962.7754977,-0.1826154400969273,0.0963975693979411,0.1103511859582495,-0.0010952687777732,-0.1570826297069956,9.829848381389573
1520530962.7805128,-0.1796070403130134,0.0855927566982989,0.1194618915831808,0.0686536585735557,-0.1235121301293816,9.96859402112415
1520530962.785529,-0.1756043126047188,0.0666288426255548,0.1287790298222596,0.1095409608139903,-0.0227875190014967,9.983205696113536
1520530962.7905438,-0.1663138851096122,0.0543644696605156,0.1397607732101686,0.0915024451196808,0.0239803624110741,10.015875698447326
1520530962.7955596,-0.1582806495756119,0.0438581096164746,0.1469705461836745,0.0638433877217399,0.003597129392241,9.985949050702676
1520530962.8005755,-0.1477355626502789,0.0351126961886927,0.1498602561019049,0.0710587939994638,-0.0131913984953266,9.945220152715947
1520530962.8055906,-0.1374354391632246,0.0310293367420553,0.15278600210836,0.0782742002771874,-0.0923352284003637,9.888282045011133
1520530962.8106067,-0.1281373432971193,0.0292766596915943,0.1557313996903772,0.0770716325642335,-0.1055256793979407,9.915035923746345
1520530962.8156216,-0.1150702001464439,0.0289903948524689,0.1557049069949589,0.0638433877217399,-0.1139186321022204,9.920983584512877
1520530962.820639,-0.1057871860912125,0.0193849041864561,0.1531793633555926,0.0939075805455889,-0.1415012033398311,9.947447163852
1520530962.8256547,-0.0942451680637389,0.0071549251504111,0.151711795022603,0.1143512316658059,-0.1750787274147898,9.977496662201442
1520530962.8306696,-0.0852129275097825,-0.003037803612136,0.1508055473112962,0.1179589348046679,-0.2206463444843724,9.982154557740529
1520530962.8356855,-0.0749259099561051,-0.0149805325539355,0.1506952651594789,0.0494125751662926,-0.2554160781453639,9.958450633756463
1520530962.8407018,-0.0641369063159894,-0.025750242164802,0.147887482943345,-0.0888827118234119,-0.3141631879966662,9.969151164502474
1520530962.8457158,-0.0528471436650438,-0.034464766121111,0.1394128650639098,-0.1622393423136028,-0.4256775341162229,9.983919648945324
1520530962.8507328,-0.044821980196751,-0.0423100585729222,0.1323037133224366,-0.1249597432120301,-0.4532606673136213,10.067258051702629
1520530962.855749,-0.0370534316182992,-0.051308604261294,0.1205868557326754,-0.1213520400731684,-0.4376721227891479,10.081153462573734
1520530962.8607638,-0.0260163242379383,-0.0582625361812346,0.1075267628580481,-0.0347671647404839,-0.370527002595478,10.08024521551306
1520530962.8657787,-0.0177401677264264,-0.0655213189675793,0.0990688610844166,-0.0227414876109444,-0.303376075484003,9.96849686234578
1520530962.8707948,-0.0059376457052568,-0.067244602650979,0.0914583014935725,-0.0251466230368524,-0.2254317606422373,9.930093514918171
1520530962.8758106,0.0086333425970864,-0.0660536864815591,0.084135384695741,0.0061201374999504,-0.1822651405584535,9.877450609298242
1520530962.8808267,0.0247083916609105,-0.0648497962507364,0.0722103873279606,0.0025124343610885,-0.1750700170380824,9.793804343728246
1520530962.8858428,0.041542829692734,-0.0622003429139091,0.0646238395513339,-0.054008248147747,-0.1522819469749018,9.689739308054817
1520530962.8908577,0.0583798630380554,-0.0578033108443923,0.0573211761824659,-0.005905539629589,-0.1378960082925313,9.697392081406305
1520530962.8958728,0.0727023203126584,-0.0560362799555386,0.052438085341636,-0.0022978364907271,-0.2050481529835457,9.717178896456732
1520530962.9008896,0.0872799027375872,-0.0519402596860034,0.0483839501477151,-0.0107158104814049,-0.2554113951471342,9.724282807825515
1520530962.9059048,0.1001000203285617,-0.046972231885517,0.0448808430644247,-0.0251466230368524,-0.3009776073172482,9.701224824309737
1520530962.9109206,0.1109053015295902,-0.0460880172668036,0.0427030760524768,-0.1009083889529511,-0.3705218512974253,9.713651504083264
1520530962.9159358,0.1174378479424134,-0.0437398125830206,0.0372978080118745,-0.180277858007912,-0.4484597972615985,9.715662188812846
1520530962.9209528,0.121957847492919,-0.0431414311383962,0.0321534811414865,-0.1466059620452013,-0.4928306154068834,9.809511373076896
1520530962.9259686,0.125965040619107,-0.0507049270933273,0.0280300249125776,-0.0131209459073129,-0.4676590627712832,9.958104125783604
1520530962.9309838,0.1276927259968459,-0.0713816128763136,0.0238107303541792,0.1179589348046679,-0.3921234250324131,9.990456780932764
1520530962.935999,0.1281598125154742,-0.0999480261059506,0.0276501229858154,0.2382157061000629,-0.351362016632835,10.064785874779892
1520530962.9410155,0.1288733600761583,-0.1314252724287035,0.0303846344574795,0.2803055760534512,-0.2710228863629336,10.079405723480091
1520530962.9460306,0.1298455964444987,-0.157951068625139,0.033968109343839,0.2562542217943722,-0.1906786047949792,10.02494071303059
1520530962.9510467,0.1288147929688676,-0.1777699808896291,0.0354420818112797,0.2562542217943722,-0.1235267410838585,10.006280926765102
1520530962.9560628,0.1305601554709782,-0.188846274324374,0.0369776128820235,0.2694824666368656,-0.0827569969474314,9.924762336814586
1520530962.9610786,0.1358374269497053,-0.1903076852740734,0.039391609329889,0.2213797581187075,-0.0287919314952684,9.81128781129193
1520530962.9660916,0.136849090954888,-0.1850601846674312,0.0386181202846726,0.1985309715725824,0.0131797628635093,9.709200612519007
1520530962.9711096,0.1391316801548167,-0.1690302358421759,0.0376540058836531,0.140807721350793,0.0071885564247455,9.657471823983856
1520530962.9761248,0.1441760552694083,-0.1524055084853592,0.0326310152587497,0.1215666379435296,-0.0155936130606654,9.540304782956287
1520530962.9811406,0.145706469059924,-0.1331618840536935,0.0284462042151349,0.0458048720274308,-0.080341295347191,9.519024610700464
1520530962.9861567,0.1437245955501226,-0.1092560287007895,0.0237624048704694,-0.081667305545688,-0.1774617416873865,9.544765086199474
1520530962.9911728,0.1379689899273927,-0.0818251701797159,0.0080199016666384,-0.2127471862576686,-0.3273440856778544,9.561294976160998
1520530962.9961867,0.1279347532095358,-0.0575939308923947,-0.0104445801389979,-0.2644575979146886,-0.5108085430815461,9.71189377258679
1520530963.0012038,0.1128574273031824,-0.0453085126106444,-0.030073057560506,-0.2247728633872081,-0.546785846562764,9.919566353707436
1520530963.0062196,0.0965128182390767,-0.0446957216128776,-0.0435655691723125,-0.1923035351374515,-0.4556537032024298,9.995862948379417
1520530963.0112348,0.0791593482288371,-0.0519740164683554,-0.0484587685255533,-0.0936929826752275,-0.3513361664826069,10.065692182445105
1520530963.0162497,0.0623096990202518,-0.0615977592524491,-0.0479597680897887,-0.0552108158607012,-0.2542087893050313,10.090790071153062
1520530963.0212667,0.048727020833742,-0.0718059048933579,-0.0463890976435656,-0.0215389198979905,-0.1510853353705331,10.088037478489216
1520530963.0262818,0.0371559642876795,-0.0814319506974831,-0.0442766230210913,0.0373868980367531,-0.087535482267916,10.024646182216262
1520530963.0312967,0.0253459660440167,-0.0840743359060021,-0.0385932309811997,0.0614382522958321,-0.0443683002243446,9.963938499255356
1520530963.0363138,0.0185651473352291,-0.0876034742069223,-0.0275149247446385,0.0915024451196808,-0.0012015864805961,9.899685859149658
1520530963.0413296,0.0102780293235567,-0.0908454608691387,-0.0150788656036337,0.1119460962398979,0.0167839276511987,9.836713559573832
1520530963.0463438,0.0050024984518584,-0.0952437914322806,-0.0056333043380367,0.0842870388419572,0.0275783456411003,9.775378622244778
1520530963.0513608,0.0029970553114158,-0.1005295642766154,0.009210438187129,0.0770716325642335,-0.0431703773804714,9.73135637333874
1520530963.0563755,-0.0005194778648504,-0.107268479904258,0.0224225902499673,0.0109304083517662,-0.0695463153975019,9.757593043898495
1520530963.0613928,-0.0015245595438407,-0.114001311959009,0.0337362538087839,-0.0491979772959312,-0.1282995131465027,9.710587692220065
1520530963.0664067,0.000232936615683,-0.1195565964276129,0.0409954873143357,-0.1694547485913264,-0.2038359938250542,9.65837324434134
1520530963.0714228,0.0024929481215895,-0.1230625226902018,0.044752252323796,-0.3318013898401097,-0.3141442686838179,9.742573226919417
1520530963.076439,0.0002216183434285,-0.1321050703089702,0.0479340879394555,-0.3089526032939849,-0.4712334436902314,9.822691947130142
1520530963.0814548,0.0007089499064879,-0.1431767570039488,0.0475781313552473,-0.2524319207851491,-0.5323940073026238,9.893092226987203
1520530963.0864708,0.0029464896229527,-0.1594868485528652,0.0450145250053574,-0.1562265037488328,-0.4880333044335151,9.890950412966648
1520530963.0914855,0.0069338336666351,-0.1842536865151618,0.0450886410776025,-0.03356459702753,-0.3069726538145604,9.864012759991644
1520530963.0965006,0.0156942245612025,-0.2113548290579841,0.0470299259965245,0.1504282630544244,-0.143903886204993,9.762118476157626
1520530963.1015177,0.0289876268314652,-0.2323394949143123,0.0506327700634714,0.2490388155166485,0.0023835653342805,9.650612326491396
1520530963.1065328,0.0443053607136265,-0.2451740759659876,0.0578112233796323,0.4270188370338331,0.2038252947928827,9.540604141403984
1520530963.1115496,0.0629021130313512,-0.2524863681294801,0.070707311728074,0.4967677643851623,0.3561106962883709,9.437508074075268
1520530963.1165648,0.0850243566230882,-0.2527967689496816,0.080944761039135,0.6110116971157877,0.4592278750052412,9.367729037240371
1520530963.1215808,0.1079098625581555,-0.2481620786120927,0.0944651533814598,0.7469018486795841,0.5407588402213173,9.362840418932567
1520530963.1265955,0.1308024879436218,-0.241209423815381,0.1128731565324835,0.7950045571977422,0.5707336044080552,9.30074935362066
1520530963.1316128,0.1582224989260305,-0.230170514419344,0.1294100605876491,0.8431072657159002,0.5767255601265358,9.208465932284051
1520530963.1366277,0.1823800199013025,-0.2176839750506304,0.1489401523268033,0.8791842971045187,0.5623330652466434,9.167453774264589
1520530963.1416428,0.2057864161227882,-0.2031580393574915,0.1684872058329385,0.8274738854474989,0.4951852289140003,9.186616877956409
1520530963.1466577,0.2244153707223756,-0.1877467089785454,0.1831799702109355,0.8070302343272817,0.4412255020798192,9.231029954442215
1520530963.1516747,0.2387693480602227,-0.1720347413504979,0.193824703531336,0.7950045571977422,0.3500917665000869,9.325369535081204
1520530963.1566908,0.2516050218036599,-0.1624351552181732,0.2017200934408508,0.7240530621334591,0.2301832500967109,9.44471575066567
1520530963.1617067,0.2586465365231704,-0.1586443996081985,0.2017359252982784,0.6615195410598537,0.0671050228307194,9.625615756641755
1520530963.1667206,0.2621543859305115,-0.1644626990347269,0.1987089246113746,0.6266450773841891,-0.0671959884525488,9.778327027276784
1520530963.1717377,0.2626369777468567,-0.1746405645089961,0.1910548980937619,0.577339801153077,-0.0516033228896331,9.872925393471766
1520530963.1767538,0.2618691912666252,-0.1801560413932196,0.1831682286615579,0.5148062800794716,0.0119559898694079,9.92460641541134
1520530963.1817677,0.261619390041314,-0.1784049189607327,0.1820998503130819,0.5665166917364914,0.1738359196516679,9.905350933918797
1520530963.1867847,0.2638934287703365,-0.1743472308418591,0.1905136957709124,0.6146194002546496,0.3800843260800979,9.824493672469684
1520530963.1917996,0.2686939576855463,-0.1621378041451137,0.2019611252396117,0.5929731814214785,0.5419699691201982,9.726926410532249
1520530963.1968148,0.2770192212086178,-0.146729053581241,0.2161319334799303,0.6098091294028338,0.6355016109068978,9.683672004974696
1520530963.2018318,0.2838386676346555,-0.1313274496302286,0.232740455122988,0.6687349473375773,0.7158394299372951,9.62839934563178
1520530963.2068477,0.2899027160375193,-0.1191408404499445,0.2528430196441703,0.7120273850039196,0.730225743259524,9.648882522705382
1520530963.2118628,0.2879219910921843,-0.1089956166759089,0.2724038659210651,0.750509551818446,0.7314218865640699,9.671749670644877
1520530963.216879,0.2866901915490633,-0.1023459834316951,0.2916660891085297,0.752914687244354,0.6774603801905617,9.719426782921245
1520530963.2218947,0.2824351573465369,-0.0988918349881862,0.3068512705983262,0.8238661823086371,0.6318875181629613,9.825697863271738
1520530963.2269096,0.2749100706704554,-0.0977700426850622,0.3220247348081732,0.8286764531604529,0.5647352798119822,9.957038792870776
1520530963.2319255,0.2626034925771631,-0.0995544967062777,0.3336677392603634,0.8527278074195319,0.4616073301991834,10.021985316353993
1520530963.2369406,0.242501377843338,-0.1027879990197326,0.341255908268898,0.7938019894847882,0.382468651592199,10.112121124984233
1520530963.2419577,0.221139475834909,-0.1060110671448789,0.3447882224552709,0.6711400827634852,0.3021357965399254,10.158717000683982
1520530963.2469718,0.1980173020013457,-0.1071820210085462,0.3434695391754879,0.6422784576525905,0.2433801636318449,10.190433106425363
1520530963.2519886,0.1708759386143313,-0.1042620550195594,0.3373196205361581,0.5220216863571954,0.1498565766021005,10.257937025919958
1520530963.2570047,0.1432354118605827,-0.0978413010277345,0.3295740369916786,0.4210059984690635,0.0995005462557859,10.296157969443264
1520530963.2620196,0.1108158204474018,-0.0899443705537707,0.3140026056347664,0.3248005814327473,-0.0072154586307919,10.308819884692776
1520530963.2670355,0.0786439210840161,-0.0843769609804727,0.2978718310803036,0.1997335392855366,-0.0683618795885304,10.331015438038786
1520530963.2720528,0.0444626072960174,-0.0750085000064123,0.2766333183989127,0.1552385339062403,-0.1582939459258058,10.368724832105295
1520530963.2770677,0.0065033704374968,-0.0694185882542676,0.2513147180190485,0.1287820442212532,-0.2470282767391372,10.307475244877535
1520530963.2820828,-0.0327113843583713,-0.0600273297347354,0.2208869793424421,0.034981762610845,-0.291389166928175,10.35259297509135
1520530963.2870986,-0.0706601458547133,-0.0451058287985402,0.1929340587334724,0.0313740594719833,-0.3489476262720989,10.334089915277108
1520530963.2921147,-0.1078539052898073,-0.0272607176189095,0.1614848721610686,0.0241586531942596,-0.4089040854829548,10.28192213463829
1520530963.297129,-0.143546336507068,-0.0131986439744294,0.1283807097646048,-0.0131209459073129,-0.4592650798073932,10.252118360826293
1520530963.3021455,-0.1814955762771299,0.0034806337294045,0.0969240310207765,0.0049175697869963,-0.4892449952921838,10.184567669116433
1520530963.3071606,-0.2156835155132836,0.0146272675410024,0.0646064751192926,0.0181458146294897,-0.5048348510561617,10.190264834677084
1520530963.3121777,-0.2456038674662648,0.0205219124327231,0.0354875201374385,0.0746664971383257,-0.5048392530744976,10.159498954215351
1520530963.3171918,-0.2717572931065851,0.0229141355193763,0.0090403462418118,0.1215666379435296,-0.4676695526873178,10.122979744917195
1520530963.3222086,-0.292885538021118,0.0232620801462026,-0.0149968106532973,0.1636565078969178,-0.4496857244348856,10.065607474096794
1520530963.3272247,-0.3097384959559103,0.0241864548300775,-0.0360614508184861,0.2237848935446154,-0.4005256500731877,9.96154346644074
1520530963.3322396,-0.3248314878514378,0.0236451264623982,-0.0536233768264061,0.2803055760534512,-0.3477678734613573,9.877267513157944
1520530963.3372557,-0.3326269617093527,0.0292206293611038,-0.0692583317463845,0.3717007222379515,-0.2758265662138942,9.783336252177037
1520530963.3422718,-0.3338896343547997,0.0339238100909466,-0.0846415448314447,0.4486650558670043,-0.2110789775873333,9.713957490947346
1520530963.3472867,-0.332385867582795,0.0389136309104983,-0.09786330161997,0.5232242540701493,-0.1463312016408431,9.588819230027989
1520530963.3523035,-0.3230810207032989,0.04943188340439,-0.1069990997705056,0.6194296711064654,-0.0899790945376058,9.478586334872556
1520530963.3573186,-0.3102583901106208,0.0581966512324977,-0.1137198574955862,0.6879760307448406,-0.0552093608766144,9.411643030427523
1520530963.3623338,-0.2939199516822577,0.0652144902744315,-0.1204604878583227,0.7096222495780117,0.0083433956849049,9.366046750217077
1520530963.3673496,-0.2775794472003413,0.0731035691739728,-0.1261122653815256,0.6819631921800708,0.0611077284942569,9.34650806836617
1520530963.3723657,-0.2577103817893258,0.0865208628657811,-0.1282112417629288,0.6903811661707485,0.0455182473701374,9.355738486015184
1520530963.3773818,-0.237336429192505,0.1022723434112871,-0.1313755504920028,0.6434810253655444,0.0059502661361319,9.302774949516968
1520530963.3823967,-0.2134385770336364,0.1209332201587631,-0.1323597953265696,0.5929731814214785,-4.15022624194461e-05,9.297461688812026
1520530963.3874128,-0.1910509798647776,0.1384308817880886,-0.1344323157463518,0.5881629105696626,-0.0480067445590758,9.31731172982944
1520530963.3924286,-0.1664089577789335,0.1486360751621534,-0.1333180630575007,0.5436679051903665,-0.1031637386173779,9.3666086525999
1520530963.3974428,-0.1432783354469134,0.1565110584467606,-0.1327598865033009,0.5917706137085245,-0.0995700637457231,9.334759055561186
1520530963.4024596,-0.1156324337819256,0.1568045319108248,-0.1295624522270218,0.6338604836619128,-0.0564042866016205,9.323847986785305
1520530963.4074748,-0.0889992115200468,0.1498049856286542,-0.1234427233354836,0.55689615003286,-0.0396103264361063,9.262987110073478
1520530963.4124908,-0.0628682850626067,0.1407553527094008,-0.1135499800519526,0.529237092634919,-0.0216210659057276,9.31088668840552
1520530963.4175067,-0.0314621021937682,0.1320071846255613,-0.1066408197267233,0.4955651966722084,0.0035635054649514,9.33210846503716
1520530963.4225218,-0.0045803136464487,0.121211725202379,-0.0975744528125675,0.4606907329965438,0.0311464513424207,9.296394554289986
1520530963.4275377,0.0268219487929652,0.1077933919401075,-0.087724856997378,0.4378419464504187,0.0527327585031797,9.293109470392931
1520530963.4325538,0.0559681946034293,0.0975750317917758,-0.0762233313589338,0.3248005814327473,0.0731269497378704,9.287217003204445
1520530963.4375696,0.0871241371630684,0.0905794430025589,-0.0709236411739831,0.2598619249332341,0.0755302882227842,9.326197488062194
1520530963.4425857,0.1167633168540373,0.0789298522162194,-0.0689032707651726,0.2646721957850499,0.0587419476551456,9.415652123060855
1520530963.4475996,0.1443914080966346,0.069037978984253,-0.0706534706009512,0.1492256953414705,0.0443612539307924,9.559733546917728
1520530963.4526167,0.1710094662358452,0.0562347803814622,-0.0735062179803454,0.1095409608139903,0.0323729404754953,9.670535182823103
1520530963.4576318,0.1910935392089423,0.0448932288817302,-0.0790411740871497,0.1035281222492203,0.0131871620007123,9.76474607782498
1520530963.4626467,0.2131894102424682,0.0344258901771426,-0.0843026488282945,0.1432128567767008,0.0191797733389451,9.72019249400634
1520530963.4676638,0.2325250792090337,0.0245293110501651,-0.0854963550043171,0.0662485231476479,0.0599565419727167,9.654659654692642
1520530963.4726796,0.2453273314592619,0.0152143979958252,-0.0872145719964686,-0.0804647378327341,0.007205789858231,9.63405838737347
1520530963.4776957,0.2623984177289261,0.0070827222783573,-0.0948838406528214,-0.0491979772959312,-0.0023897686881514,9.646546994116797
1520530963.4827118,0.276461347217928,0.0021448968596616,-0.0987354121488956,-0.0107158104814049,-0.043163540203056,9.614834303081729
1520530963.4877267,0.2842437818572148,-0.0028019458271862,-0.1001404025000757,-0.0047029719166351,-0.0371683063858146,9.604310635515375
1520530963.4927428,0.292030752429796,-0.002787967239377,-0.1042130593600052,0.0602356845828782,0.0275802188403922,9.587345402789808
1520530963.4977567,0.2988125668758548,-0.0045307023792377,-0.1053211829837933,0.1624539401839639,0.1067155256886511,9.557219697747616
1520530963.5027738,0.3033441668916979,-0.0007511293596291,-0.1015130413510352,0.1828975913041812,0.2014460269188698,9.55227975817077
1520530963.507789,0.3058652860987771,0.0021498602784282,-0.0963551057085291,0.2899261177570829,0.2338144826141684,9.495423526186572
1520530963.5128038,0.3056195659943478,0.0030093467834091,-0.0909370518113043,0.3789161285156752,0.2493963772811556,9.578216515304558
1520530963.5178218,0.3036104847490425,7.72315205193894e-05,-0.0844624473766001,0.3632827482472739,0.2793761054460171,9.64109522108469
1520530963.5228355,0.3016007409457739,-0.0043161769652416,-0.0763756829930364,0.383726399367491,0.3549203599016299,9.687308324921478
1520530963.5278518,0.2960742640849501,-0.0081303800672038,-0.0674663006253513,0.4390445141633727,0.3836954217051674,9.729741154489984
1520530963.5328686,0.2885340485439009,-0.0160320385062779,-0.0558788487068175,0.4642984361354058,0.3717020506117822,9.831775709668811
1520530963.5378828,0.2784771908785803,-0.0274349379836226,-0.0429606770997795,0.5063883060887939,0.4004781426749303,9.904553037667704
1520530963.542899,0.2671596128525231,-0.042922083707183,-0.0284480196953116,0.4438547850151885,0.4184701193442823,9.981845661491588
1520530963.5479147,0.2510692114496562,-0.0546121747652108,-0.0179557828781826,0.4065751859136161,0.4520489546587452,10.01122937559729
1520530963.5529308,0.2347305456150868,-0.0645562424082262,-0.0066381031382209,0.3464468002659185,0.4820321482422967,10.037352561930184
1520530963.5579467,0.2201482939588449,-0.0741980383002077,0.0008908900815337,0.2995466594607143,0.4868323626745674,10.086614427851012
1520530963.5629618,0.2017969127062387,-0.0832570851085931,0.0078902385291749,0.3151800397291158,0.4808354429779633,10.173628905380152
1520530963.5679777,0.1814306558738551,-0.0946436251932482,0.0132522607051026,0.3067620657384381,0.4796369581743026,10.133036971716717
1520530963.5729938,0.1588072847028009,-0.1028265500086244,0.018913483224779,0.360877612821366,0.5000181306739147,10.11970678191388
1520530963.578009,0.1419639630207634,-0.1107150973881813,0.0242956482986232,0.4282214047467871,0.5551733451928894,10.092268198201484
1520530963.5830247,0.123117154546604,-0.1148222610058065,0.0318748144348726,0.4835395195426689,0.6211217601222259,10.046341837732598
1520530963.5880408,0.1060353302508545,-0.1157286046518928,0.0413689887179367,0.5605038531717218,0.6798736466317226,10.029265401139012
1520530963.593057,0.0904700924037936,-0.1122730592592171,0.0544108055877328,0.6446835930784983,0.7290318477941287,9.969128762614762
1520530963.5980718,0.0721431627502573,-0.1070710181448104,0.0677416408212722,0.6410758899396365,0.7650063414764084,9.965642365743896
1520530963.6030877,0.0593493354056997,-0.0998329467659789,0.0832421369072195,0.6735452181893932,0.7530124084232357,9.9420951435285
1520530963.6081038,0.0445408559554398,-0.0934596185784103,0.0949520549807914,0.6170245356805575,0.7542159508649846,9.939157679978626
1520530963.6131177,0.0304869276861467,-0.0885516588334947,0.1098960082088161,0.6194296711064654,0.7062501466085405,9.935694611573105
1520530963.6181357,0.0181974621995811,-0.0783922609599729,0.1227123427423043,0.6386707545137286,0.6354993630677476,9.957657056816178
1520530963.6231508,0.0059038214839463,-0.0696825014122375,0.1328121028902322,0.5917706137085245,0.5647537308250075,9.983749712025352
1520530963.628167,-0.00916026532249,-0.0653438643537861,0.1426131048185997,0.4787292486908531,0.4400519308267407,9.951269423939037
1520530963.6331818,-0.0219713149790069,-0.0618537281210328,0.1432046765209546,0.3079646334513921,0.321350328623839,9.972803753759008
1520530963.6381977,-0.0332801033315584,-0.0580519489889058,0.1364909317796578,0.20694894556326,0.1786604856747334,9.933251091471858
1520530963.6432128,-0.0443379338985912,-0.0504438617697343,0.1230419730265836,0.0554254137310623,0.0107926275524703,9.931403204213863
1520530963.6482277,-0.0548883211561524,-0.0369976890586725,0.1058488999905412,-0.0612236544254709,-0.0551510107186717,9.919819324849536
1520530963.6532447,-0.0644408089677401,-0.0261611999429271,0.0840346720633064,-0.0720467638420565,-0.1091114868325695,9.91765300271517
1520530963.6582608,-0.0714815826181452,-0.0156121970747866,0.0611313702344438,-0.0443877064441156,-0.1318973090565998,9.912757428046234
1520530963.6632757,-0.0802807933784682,-0.0065295472047161,0.0414667707927473,-0.009513242768451,-0.123506042231683,9.88916691695074
1520530963.6682928,-0.0868226310683452,-0.0024075609404953,0.0247361832462594,0.1359974504989771,-0.067157775186994,9.840047744055443
1520530963.6733077,-0.0911066566038879,-0.0032476951442601,0.0114806993867828,0.2622670603591419,-0.0036131670423943,9.820162434882944
1520530963.6783235,-0.0928795051024544,-0.0081786115028612,0.0027887053305796,0.3692955868120435,0.113894258715218,9.824816809385633
1520530963.6833386,-0.0941521866327534,-0.0189552322729319,0.0008149635191728,0.4823369518297149,0.2290029353261816,9.79106424679546
1520530963.6883547,-0.093666482039359,-0.0308996156876536,-8.875411276657377e-05,0.4847420872556228,0.2853623479066574,9.79331016564631
1520530963.6933696,-0.0934291320537234,-0.0419757714245807,0.0011790314017039,0.5160088477924256,0.293753895711468,9.789511216941822
1520530963.6983857,-0.0899186010889592,-0.0466321748972766,-0.0004863474644553,0.528034524921965,0.3285280313907953,9.81492742253214
1520530963.7034018,-0.0846342454175337,-0.0425558229662754,0.0014287958124897,0.5124011446535637,0.320135266006445,9.786034174784952
1520530963.7084177,-0.0821098604747312,-0.0335190043405078,0.0004108606407688,0.5148062800794716,0.2685720404797623,9.745386007862166
1520530963.7134318,-0.0755589704474419,-0.0186456355695374,-0.0032755393561137,0.5003754675240243,0.273369726092989,9.636280259485686
1520530963.7184486,-0.0689987537539193,0.0029288488981016,-0.0066402624949746,0.4931600612463005,0.2841625518634924,9.537557729662373
1520530963.7234647,-0.0644461990815879,0.0268350788018859,-0.0105245589569907,0.5857577751437547,0.353705484604165,9.471508557204796
1520530963.7284796,-0.0576298065821126,0.0495642733682211,-0.009822668039366,0.5400602020515046,0.3848866946915543,9.446355779535685
1520530963.7334957,-0.0540912524966859,0.0647183755961028,-0.0099841476249672,0.4642984361354058,0.3884900165395624,9.55168264595251
1520530963.7385128,-0.049313979430507,0.0664678249840843,-0.0097091309593635,0.4618933007094978,0.3968841868233817,9.614453644218449
1520530963.7435277,-0.0455522907989353,0.0582996085869915,-0.0057201897585833,0.4691087069872215,0.3381257441163635,9.635359302679069
1520530963.7485418,-0.0415331914215405,0.0533308929971197,0.0004571058245408,0.4642984361354058,0.2673768337748625,9.650582985325352
1520530963.7535586,-0.0334902724492129,0.0515733530825435,0.005028112398322,0.410182889052478,0.2613853463562049,9.64298055188125
1520530963.7585747,-0.0294661039464481,0.0539052761584857,0.0053089754043588,0.3753084253768133,0.2589897816483524,9.66772736023471
1520530963.7635896,-0.0239358556827428,0.055950776026792,0.0039615396100507,0.4113854567654318,0.2374024442279829,9.646478665472472
1520530963.768607,-0.0156396462753055,0.060040692752446,0.001271801977419,0.405372618200662,0.1642553466996207,9.677986407212751
1520530963.7736228,-0.0106185897923627,0.0591808916095537,-0.0033434819742571,0.4017649150618003,0.1354762575176056,9.683860306295118
1520530963.7786367,-0.0040914104265167,0.0577418258695969,-0.0090481960197852,0.3741058576638594,0.1270844287329011,9.679489132150794
1520530963.7836528,0.0026871971343055,0.0554243344168963,-0.0131367706691061,0.3680930190990896,0.0947081056005766,9.664471358187818
1520530963.7886698,0.0079492613684019,0.0484521125360053,-0.020234119198666,0.3981572119229384,0.0383461642010568,9.625882940232664
1520530963.7936847,0.013218013833271,0.0467262690085218,-0.0278325439844557,0.405372618200662,0.058730989439288,9.650197854165464
1520530963.7986996,0.0199949983565593,0.0449995593521529,-0.034892677318071,0.382523831654537,0.1198889305726718,9.65036061393583
1520530963.8037157,0.0257699983808612,0.0453106907025318,-0.0413942903696313,0.4210059984690635,0.164254129120081,9.620889187722472
1520530963.8087318,0.0255177821941647,0.0470698258767646,-0.0454386735730209,0.4667035715613136,0.2302032933291343,9.666865840088306
1520530963.8137455,0.0265255728240165,0.0488177984316208,-0.0451566560583475,0.50518573837584,0.306945283308691,9.642011417532084
1520530963.8187635,0.0275298860404629,0.0473576274619841,-0.0438169088984745,0.530439660347873,0.3728960397371424,9.69399777562826
1520530963.8237798,0.024760271063344,0.0418129541217826,-0.0411485546043598,0.5424653374774125,0.4076701754164697,9.754278299845154
1520530963.8287938,0.0237536996448386,0.0362558582111524,-0.0336136412469222,0.5797449365789851,0.4760182760921009,9.707363032589942
1520530963.8338108,0.0197361605223599,0.0336092408137475,-0.0252392586694292,0.5977834522732942,0.4868091350033478,9.73390624363734
1520530963.8388257,0.0169790751645798,0.0338769609669799,-0.0168449788551969,0.5689218271623995,0.5239847359682971,9.69696230893982
1520530963.8438418,0.0142221622946502,0.0329733155624982,-0.006295224214993,0.5472756083292283,0.559960634550046,9.662273601151428
1520530963.8488576,0.010209594257223,0.0338225840615402,0.0023763812821162,0.5136037123665177,0.5635606782992932,9.678867850072685
1520530963.8538728,0.0064480584528465,0.0335020423205454,0.0126619030901232,0.4895523581074387,0.5635625514985851,9.65004835234573
1520530963.8588898,0.0036935644764332,0.0340538626903926,0.0237638649486775,0.4715138424131294,0.5335854458127323,9.6583881693529
1520530963.8639038,0.0024429940313508,0.0325702242577787,0.0334947353909305,0.4438547850151885,0.486821123478816,9.681945868965824
1520530963.868919,-0.000313656174672,0.0313730090328008,0.0448539046335284,0.5075908738017479,0.5215912317796657,9.703372325267154
1520530963.8739357,-0.0020613709870289,0.0330907613339863,0.0559628919402357,0.5508833114680901,0.5395749663721334,9.676204092200024
1520530963.8789518,-0.005319572127733,0.029255591399865,0.0729844506755159,0.5400602020515046,0.5755500220142008,9.703003668477407
1520530963.8839676,-0.0075712959581189,0.0286362431230816,0.086240953913499,0.5196165509312874,0.6007335631252693,9.755474576252274
1520530963.8889835,-0.0088177813501883,0.0277244472790364,0.1000344589648897,0.530439660347873,0.6307112307709096,9.836690074058534
1520530963.8939986,-0.0128366926426874,0.0209846063092427,0.1135180903701719,0.5508833114680901,0.6307096385515115,9.884138990222269
1520530963.8990138,-0.0186121906013644,0.015113859146129,0.1286349334696895,0.532844795773781,0.6546938519192379,9.92496621768134
1520530963.9040298,-0.0236297462095945,0.0115715698437123,0.1448503446654748,0.5508833114680901,0.6690821321007234,9.92593875371817
1520530963.9090457,-0.0271395480331253,0.0097861911800489,0.1581002891785762,0.50518573837584,0.6307131976301661,9.926420964718355
1520530963.9140608,-0.032404250702682,0.0153036757176789,0.1643748845938845,0.4510701912929122,0.6007389017432512,9.907220478517058
1520530963.9190776,-0.0379269364999691,0.0170381619624344,0.1687272253521307,0.50518573837584,0.613925231702386,9.911329464063003
1520530963.9240928,-0.04219308109772,0.0199437776115444,0.1711923035639502,0.5087934415147018,0.5263876998133526,9.918352574384263
1520530963.9291077,-0.0437015797521769,0.0187747350448515,0.1722683951459446,0.4186008630431554,0.4232686478971903,9.933276744242338
1520530963.9341238,-0.0447145100227996,0.0161657206673371,0.1671098822491202,0.357269909682504,0.3285413311057679,9.909561056882202
1520530963.9391408,-0.0442289700529936,0.0083196598424788,0.159203094518083,0.3296108522845632,0.2673873236908971,9.88083631062626
1520530963.9441547,-0.0404716134098174,0.0057270847416125,0.1486247959610788,0.4751215455519912,0.3033502035375672,9.798034841825851
1520530963.9491708,-0.0326843370513669,0.0051546521194969,0.1459004224100364,0.5689218271623995,0.4220577999782031,9.714493862089329
1520530963.9541876,-0.0221209065115678,0.0089344027789025,0.1505090003719865,0.6098091294028338,0.5563583429616483,9.579156225485455
1520530963.9592028,-0.0138127006768672,0.0164968956068336,0.1567739543278105,0.6663298119116695,0.6714714215909481,9.49946804237855
1520530963.9642177,-0.0044933718933217,0.0240401146181006,0.1703417805798825,0.6795580567541629,0.7650033443575415,9.458573039898718
1520530963.9692347,0.0106053438212769,0.0304164178423158,0.185242709334982,0.6615195410598537,0.7662038896804233,9.466882454085397
1520530963.9742498,0.0262010706051313,0.0330063759849423,0.1995727127427117,0.5965808845603403,0.742226138850254,9.529131543491022
1520530963.9792647,0.0392813431504909,0.032969246671177,0.2152401050948745,0.5472756083292283,0.7134506087468935,9.587746712657449
1520530963.9842808,0.0531127914358614,0.0335268366757074,0.2265818091134228,0.55689615003286,0.6403022936389915,9.653966607290757
1520530963.989297,0.0674429208821153,0.0308779369289638,0.2384392175388254,0.4113854567654318,0.5299927075407234,9.667111937871496
1520530963.9943118,0.0817760063460921,0.0334877988637806,0.2451962694776772,0.4522727590058661,0.4376557104991361,9.634263974357092
1520530963.9993286,0.0948431455646364,0.0317380555085804,0.2475935744188221,0.4606907329965438,0.3764988932853275,9.653998122485568
1520530964.0043435,0.1086672078035701,0.0288077723584099,0.2556620506628406,0.4642984361354058,0.3573123655308278,9.562172344360972
1520530964.0093598,0.1227439841635753,0.0296779698467412,0.2591596800622914,0.4606907329965438,0.3573126465107216,9.436695912474589
1520530964.0143738,0.1378261401241781,0.0337676311477495,0.257539524484939,0.4679061392742675,0.3081473271910063,9.386701435013844
1520530964.0193908,0.1496451513839427,0.0407705862307125,0.2556771212673084,0.4378419464504187,0.254188349636542,9.325453052117124
1520530964.024407,0.1629673922915054,0.0489600662259958,0.2462455249660537,0.3753084253768133,0.1390757393070653,9.293633940901124
1520530964.0294228,0.1720112765642409,0.0580467927152546,0.2276299717556983,0.2261900289705234,-0.0036103572434565,9.304521670902446
1520530964.0344388,0.1815526149222514,0.0648091957768639,0.2065607873532125,0.1552385339062403,-0.1439042608448514,9.34021340055038
1520530964.0394528,0.1905915830282911,0.0744976305284715,0.1809154870200443,0.0217535177683516,-0.2206388516872048,9.445018311451175
1520530964.0444686,0.1951023775456681,0.0809805201422426,0.1547130419755519,0.0277663563331216,-0.2146436178699636,9.510034000909068
1520530964.0494857,0.197603389069945,0.0848263211757559,0.1336346949715672,0.0722613617124177,-0.2134479428652408,9.530518335657993
1520530964.0545008,0.1983465358662109,0.0877892666968528,0.1155289506294666,0.0638433877217399,-0.1319057384534133,9.59211438555761
1520530964.0595157,0.1955700014514609,0.0889996129523377,0.0984985854849118,0.1239717733694376,-0.0155938003805946,9.591415706829077
1520530964.0645318,0.1912896650070056,0.0884399368098488,0.0893035131492632,0.2466336800907407,0.1115055311847809,9.602881424609542
1520530964.0695477,0.1862604384180368,0.0881560527756037,0.085793527882664,0.3296108522845632,0.194239757862712,9.648478849476668
1520530964.0745635,0.1809744949667778,0.0814506842193563,0.0862932899010437,0.3163826074420698,0.2218210178608186,9.762470817808088
1520530964.0795798,0.1721580499666233,0.0660038583288743,0.0861918016941318,0.40777775362657,0.2877666229912172,9.845191284564736
1520530964.0845957,0.1653432805046821,0.0426838819662074,0.0884614694608015,0.4642984361354058,0.374100331458608,9.902664152197678
1520530964.0896108,0.1597853462317531,0.0155581882497462,0.0974635508996208,0.5268319572090112,0.411268814266248,9.900857095792556
1520530964.0946257,0.1549791953384426,-0.0136090870843435,0.1072603082591627,0.5977834522732942,0.4700211690755676,9.907082063565484
1520530964.0996418,0.1524339811729088,-0.0451145652786471,0.1200110852816997,0.5797449365789851,0.4820139782091652,9.953731704188144
1520530964.1046576,0.1503885145524094,-0.0751468984419112,0.1268200345744147,0.5593012854587678,0.4748207278880861,9.931856971052728
1520530964.1096735,0.1518644894106101,-0.1019689812720309,0.1322941742002306,0.55689615003286,0.4580329492802351,9.953977487045238
1520530964.1146886,0.1553511685516499,-0.1264497306355926,0.1342652680756366,0.5436679051903665,0.4292546093779368,10.026187231969503
1520530964.1197038,0.1585913474608024,-0.146263327000535,0.1343785767679587,0.5015780352369782,0.3872879726572471,9.99409780510003
1520530964.1247218,0.1638459236760125,-0.1619916533215689,0.1326254535971359,0.4919574935333466,0.3657041943155322,9.939591727809637
1520530964.1297357,0.169344106888005,-0.1806213431318373,0.1262503526196248,0.457083029857682,0.3489189445267253,9.909731802385796
1520530964.1347528,0.1753537714083884,-0.1940117419882927,0.1220787008983536,0.4234111338949714,0.3585146903930369,9.880996590396256
1520530964.1397667,0.1826223528998616,-0.2044827042766362,0.116033125142513,0.384928967080445,0.3525219853948396,9.882539142852364
1520530964.1447828,0.1883876773500983,-0.2099934360235726,0.1073226832175511,0.3945495087840766,0.3681100616194901,9.89172745262446
1520530964.1497986,0.1946568226019893,-0.217849615699125,0.1040044410815944,0.4137905921913397,0.401684494915617,9.940317476299851
1520530964.1548157,0.1991678914481873,-0.2236609654238763,0.0985406604384942,0.4017649150618003,0.4100794144791531,9.932291333809832
1520530964.1598318,0.2011719075002538,-0.2265660103107259,0.0955386909443142,0.3921443733581686,0.4088810233354569,9.978871901769256
1520530964.1648448,0.2051878549107679,-0.228011888054642,0.0920030112987091,0.4258162693208793,0.3884930136584295,10.022725509216894
1520530964.1698618,0.2099570401827151,-0.2294552851387295,0.0876542937955864,0.3909418056452147,0.4172750999593116,9.960281118183431
1520530964.1748788,0.2089456035837387,-0.2317765571442901,0.0838507334635777,0.4149931599042937,0.3789007332108078,9.992624466629028
1520530964.1798935,0.209695195476047,-0.2323473759351659,0.0795161527887248,0.433031675598603,0.3357302730684756,10.000625994675158
1520530964.1849086,0.2079364212546902,-0.2285440407856584,0.0735963102508216,0.4161957276172476,0.3093504949928968,10.057760644685354
1520530964.1899247,0.201151274489638,-0.2250340592742774,0.0676835790930352,0.40777775362657,0.2661820953697856,10.006750342307686
1520530964.1949396,0.1968821072908941,-0.2194841299474971,0.062052288195604,0.4161957276172476,0.3033547928758324,9.947362815730788
1520530964.199957,0.1898477748044006,-0.2139323699074042,0.0553439476705523,0.4366393787374648,0.3129463240437373,10.00409952881428
1520530964.2049727,0.1833177531896742,-0.2080933990153418,0.050260172159675,0.4282214047467871,0.2757736265376904,9.97051553905365
1520530964.2099876,0.1745285472505931,-0.2013855312276827,0.0468105417895757,0.4618933007094978,0.3081477954908292,9.964345505542877
1520530964.2150028,0.1647346752551025,-0.1938017183871082,0.0425578098807868,0.4534753267188202,0.3273346978851874,9.941165852425485
1520530964.2200198,0.1536861987477414,-0.1856392709249955,0.0396645872384798,0.4582855975706359,0.3477197104433478,9.94574772924941
1520530964.2250347,0.1433997575081021,-0.1716495659814677,0.0370849720284518,0.4823369518297149,0.3501161180908816,9.939700569671292
1520530964.2300508,0.1333628156400358,-0.1573610937444273,0.0318016542214498,0.4378419464504187,0.3824963749417192,9.90291347806431
1520530964.235067,0.1198101561123407,-0.1404478969839953,0.0251921488285264,0.4029674827747541,0.3621137038826736,9.927677826506518
1520530964.2400818,0.1077682377126374,-0.1212023048409024,0.0183270818825506,0.40777775362657,0.3141477123063004,9.909083476583294
1520530964.2450967,0.0944721578170827,-0.099916056422332,0.010938818358296,0.4137905921913397,0.3213420865469547,9.909017935265664
1520530964.250115,0.0801724664528766,-0.0774646637167568,0.003561314068365,0.40777775362657,0.2913640442614559,9.90561926216638
1520530964.2551298,0.0626056276466134,-0.0547209811127271,-0.0046195374214328,0.4534753267188202,0.293758766029627,9.876118532488205
1520530964.2601457,0.0470453962737835,-0.0345982431789322,-0.0130946763610888,0.4739189778390372,0.2649778036483199,9.893379769984238
1520530964.265159,0.028718458887464,-0.0159320540304246,-0.0221168885631106,0.4979703320981162,0.284162177223634,9.934964141779604
1520530964.2701766,0.0096373976076728,-0.0001923888496237,-0.0265606512180935,0.5593012854587678,0.2913522431059169,9.95527875904231
1520530964.2751918,-0.0081855033671793,0.0146641454231254,-0.0274963200986456,0.5749346657271691,0.2949484467966158,9.938853069931952
1520530964.2802088,-0.0282788912101165,0.0236950167744128,-0.0295544337595526,0.6158219679676035,0.3584997047987017,9.95931171420917
1520530964.2852228,-0.047871178998654,0.0309748641487551,-0.0305446357952548,0.6098091294028338,0.3776864198731306,9.924487211436732
1520530964.2902386,-0.0674604363219366,0.0385373548775766,-0.0282860639948326,0.6242399419582811,0.4004689639984,9.96732385961998
1520530964.2952538,-0.0847951706879154,0.0426121301205044,-0.029034374582481,0.6855708953189327,0.4220487149616374,9.92254438337542
1520530964.300269,-0.1011274383490571,0.0443547661051202,-0.0292612449538888,0.6879760307448406,0.4208493872182953,9.9213599986476
1520530964.3052857,-0.1169502946874921,0.0490019746698667,-0.0259497212720274,0.675950353615301,0.4832056258354105,9.899335508440716
1520530964.3103027,-0.1325237849523731,0.0533629961803368,-0.0245347086700556,0.6795580567541629,0.5167812767110771,9.889970500138691
1520530964.315317,-0.1445853838788626,0.0527704022422756,-0.0226229308523427,0.6975965724484722,0.4975936250370023,9.864246466727474
1520530964.320335,-0.1553794879699176,0.0609227501249808,-0.0217289776753038,0.6278476450971431,0.5179844445129675,9.849797609828103
1520530964.3253498,-0.1629085969163942,0.068497251030481,-0.0221982675509173,0.6218348065323732,0.4999978064615975,9.802225773075996
1520530964.3303647,-0.1714432932090194,0.0772434521025964,-0.0250917112553183,0.5737320980142153,0.4736204635450981,9.82828686778936
1520530964.3353808,-0.1777193736270658,0.0860007373095362,-0.0317769980117785,0.5364524989126427,0.4532379798059818,9.85423677029864
1520530964.3403966,-0.1817338077052784,0.0950517500057797,-0.0390053539841734,0.4919574935333466,0.4352543388734787,9.81401235907749
1520530964.3454108,-0.1839880993242448,0.1029291726088297,-0.0429993186098911,0.5400602020515046,0.4424454350153721,9.805402133105408
1520530964.3504276,-0.1847372834582344,0.1081818114752225,-0.0459339077594181,0.578542368866031,0.4784166505988912,9.836370377886192
1520530964.3554428,-0.1885038569309324,0.1122684591970114,-0.0491423344668289,0.5953783168473864,0.5251818158724889,9.853593062178772
1520530964.3604577,-0.1864876601673591,0.116055060402949,-0.0483055304562711,0.6338604836619128,0.5683478739964852,9.838068532755294
1520530964.3654735,-0.1814595783422047,0.1151719494658869,-0.0442633457391078,0.7000017078743801,0.6534816927607463,9.833855299702464
1520530964.3704908,-0.1802058637945037,0.1102057930203956,-0.0394336456795052,0.7324710361241368,0.7218301680762359,9.875309793193614
1520530964.3755066,-0.175179812765202,0.1052316438041481,-0.0310938498222564,0.7517121195314,0.7374174950211697,9.876269454834766
1520530964.3805218,-0.168899600240049,0.0982168383124232,-0.0222308573867289,0.7577249580961698,0.7745903798471457,9.84363464931776
1520530964.3855376,-0.1653864896903112,0.0894540995081181,-0.0139171612988768,0.7084196818650578,0.729026883816005,9.862753294790233
1520530964.3905537,-0.156848190550524,0.0815740392761355,-0.0080410434836335,0.7096222495780117,0.6882560157600028,9.860457059359852
1520530964.3955677,-0.1480563461759824,0.0763209088317375,-0.0037686599992826,0.6434810253655444,0.6211093033469348,9.86000417650706
1520530964.4005847,-0.1397770808195524,0.0658321295888655,-0.0030524552506776,0.5905680459955706,0.6103211605746611,9.870989018631038
1520530964.4055998,-0.1304910794210286,0.0568021236667604,-0.0028680937604125,0.5340473634867349,0.5695547881969595,9.813471716106609
1520530964.4106166,-0.1191892772208573,0.0512673344232999,-0.0018491513448992,0.4883497903944848,0.5012073431410804,9.746578811243324
1520530964.4156308,-0.1104017805632354,0.0457359312108295,-0.00244881707208,0.4823369518297149,0.4616361774682787,9.746675924720696
1520530964.4206476,-0.0985991331083089,0.0416706448430696,-0.0060189729068823,0.433031675598603,0.4256658048244409,9.723948033127282
1520530964.4256637,-0.0900610809039043,0.0399380684958822,-0.0106474602402857,0.408980321339524,0.4232693971769071,9.689320154307731
1520530964.4306798,-0.0795057342262058,0.0419884511992933,-0.0130864140836252,0.4065751859136161,0.4268670057670748,9.682367192677525
1520530964.4356947,-0.0654329958651199,0.0434574432257022,-0.0155363482233823,0.4522727590058661,0.4220668849947688,9.645900615309529
1520530964.4407098,-0.0541235331582118,0.0455073928646706,-0.0177061563406345,0.410182889052478,0.4160744609764653,9.600992524766152
1520530964.4457247,-0.0425639634401232,0.0452198088612273,-0.0174593028005236,0.4234111338949714,0.4232682732573319,9.626423920102788
1520530964.4507418,-0.0322632165849371,0.0443540625429644,-0.0191083830859839,0.4715138424131294,0.4724292842186758,9.679366396830575
1520530964.4557576,-0.0227163701491474,0.0420245423420018,-0.0183322655650671,0.5184139832183335,0.5024041420653784,9.726528568271696
1520530964.4607728,-0.0146745488865404,0.0402706445827646,-0.0151139884707921,0.503983170662886,0.5287863553000367,9.756859046295014
1520530964.4657876,-0.0076340064429937,0.0417230396637181,-0.0124104823368288,0.5027806029499322,0.5287864489600014,9.78243791834426
1520530964.4708047,-0.0013535155254097,0.0402685784157957,-0.0124332658451598,0.5424653374774125,0.5287833581811697,9.792510947070166
1520530964.4758208,0.003417331973903,0.0364780796298733,-0.0108477583209321,0.5424653374774125,0.5227876560641054,9.830867544255645
1520530964.4808357,0.0081915235886022,0.0353107700206547,-0.0095127889248194,0.5087934415147018,0.4544392744085803,9.838234801898126
1520530964.4858508,0.0106992741983977,0.0306459599840462,-0.0082002960429799,0.4919574935333466,0.4676311303056262,9.82211579459728
1520530964.490867,0.0119571287174674,0.0303492402859193,-0.0060404855774362,0.5208191186442414,0.4784211462771918,9.810202909647613
1520530964.4958818,0.0099487139622566,0.0303418967619756,-0.0036018387281546,0.5003754675240243,0.4532407896049196,9.830182898952827
1520530964.5008988,0.0114516652176238,0.0259680774304933,-0.0022852558679201,0.531642228060827,0.4676280395267946,9.846134550773815
1520530964.5059135,0.0134531212138929,0.0180956553893763,-0.0001846457902397,0.5436679051903665,0.4484408561525427,9.844874065683328
1520530964.5109298,0.0116854868036294,0.0090496625263522,0.0043489858583832,0.5749346657271691,0.4904083358129137,9.845690951296726
1520530964.5159447,0.0111809014715623,0.004665585946655,0.0091863991515042,0.529237092634919,0.4796196310808525,9.867064858670116
1520530964.5209618,0.0101801401160533,0.0043577821137036,0.015138052669107,0.5340473634867349,0.471225273477104,9.83564833705524
1520530964.525977,0.0094287448340983,0.0037637912264757,0.0191931951068203,0.4642984361354058,0.4724298461784634,9.836326060988716
1520530964.5309927,0.0074197106428867,0.0020023130902322,0.0237828706114542,0.4907549258203926,0.4592372410017007,9.772163494997033
1520530964.5360088,0.005664049198579,0.0040391302992872,0.0246133369592243,0.457083029857682,0.4472484592465807,9.745773619022426
1520530964.5410247,0.0039079016162894,0.0049067672438316,0.0267876404452622,0.4667035715613136,0.4208666206517807,9.721300680995908
1520530964.5460398,0.0031615636633112,0.0072229794741936,0.0322177432155775,0.4799318164038071,0.4004802031941514,9.692138205286986
1520530964.5510566,0.0019104326327149,0.0095462791041502,0.0349433204734231,0.4787292486908531,0.3645060841517299,9.700319998200436
1520530964.5560708,0.0006563534486578,0.0095377740846959,0.0379216589446933,0.5027806029499322,0.3860887385738696,9.711686288507607
1520530964.561087,0.002666559797122,0.0063194917385193,0.0430338432422406,0.5111985769406099,0.3956812063414204,9.697649270947997
1520530964.5661018,0.0001488160309987,0.0013584143395131,0.045435631087802,0.4775266809778992,0.4052769522077321,9.68750836222596
1520530964.5711188,-0.002360792886799,0.0007608205392221,0.0505762241720194,0.4847420872556228,0.3537133520411911,9.721190588147495
1520530964.5761347,-0.0061276447519279,-0.0007128759827914,0.0562535734084671,0.4354368110245108,0.3657085963338682,9.723983089976912
1520530964.5811498,-0.0073807085380586,0.0013241381373469,0.0570831063096946,0.405372618200662,0.3705074995266345,9.761459645565584
1520530964.5861647,-0.0081280971466638,0.0048146296496941,0.0592755506704334,0.4125880244783858,0.3693077971434341,9.786957751559097
1520530964.5911818,-0.0101333402743386,0.0086018408601682,0.0593081845656286,0.4149931599042937,0.3729050310937435,9.80320084878756
1520530964.5961957,-0.0113852161746925,0.0115130085621853,0.0601443867227848,0.40777775362657,0.3812995760174212,9.737020688360882
1520530964.6012127,-0.0128881243080971,0.0155939865042391,0.0593666725690433,0.4125880244783858,0.3836974822243885,9.712566506418078
1520530964.6062288,-0.01489767596286,0.0173466050411376,0.0574899235957628,0.4282214047467871,0.3777005625277844,9.721717339014535
1520530964.6112435,-0.0151523580971665,0.0164796373143953,0.054778262104093,0.4630958684224517,0.4220660420550874,9.681821732382486
1520530964.6162577,-0.0156559280313073,0.0141410798742908,0.0574668698271712,0.4691087069872215,0.4184681524850258,9.695712442568732
1520530964.6212757,-0.0156584802228425,0.0121006597521727,0.0577218541259054,0.4787292486908531,0.4448484925203922,9.70721451619602
1520530964.6262918,-0.0176669381000159,0.0123861576176575,0.0596216322686941,0.4871472226815307,0.4496443985942915,9.7292086385742
1520530964.6313066,-0.019424532299858,0.0141366893168943,0.058556054259846,0.4667035715613136,0.4784253609755986,9.69683952967332
1520530964.6363237,-0.0211847649351606,0.0144324836728701,0.0566677231367462,0.4606907329965438,0.4664344250412928,9.738746930699838
1520530964.6413376,-0.0239466762835801,0.0161797078256689,0.0566861956045883,0.4306265401726951,0.4448522389189761,9.73673631730855
1520530964.6463535,-0.0244494464296076,0.0173508764722995,0.0545316542251594,0.4246137016079253,0.4400561455251475,9.729826656222366
1520530964.6513698,-0.0246965621653647,0.0217273733746937,0.0524011000608647,0.457083029857682,0.4412527571295163,9.708590859183662
1520530964.6563857,-0.0254483455449832,0.0237689549923223,0.051606424140142,0.4438547850151885,0.3848941874887219,9.728531020970811
1520530964.6614015,-0.0279595657039219,0.0281525785365871,0.0465040656303756,0.4246137016079253,0.3261378053009248,9.690424849007636
1520530964.6664157,-0.0289642317603313,0.0290285235895025,0.045700964091686,0.4342342433115569,0.3033533879763634,9.679894130413995
1520530964.6714327,-0.0287095378296317,0.0342859268644689,0.0411412326736663,0.4366393787374648,0.3129463240437373,9.6345377513726
1520530964.6764488,-0.0282113349424681,0.0328372138808337,0.0381531789456622,0.4414496495892807,0.274573455854667,9.622906910460694
1520530964.6814637,-0.0294677349797232,0.0351779958564177,0.0343856547018782,0.4775266809778992,0.3189388417220054,9.627161069032544
1520530964.6864798,-0.0299745941108946,0.0343138433984049,0.0305922763498749,0.4871472226815307,0.3345269179466559,9.673537985339651
1520530964.6914947,-0.0309877949096861,0.0290714418092374,0.0294719441237826,0.4955651966722084,0.3561107899483354,9.69202930510568
1520530964.6965098,-0.0317426126866906,0.0293669015563121,0.0278522920034988,0.4642984361354058,0.3884900165395624,9.703923503955211
1520530964.7015266,-0.0327488586586714,0.0305407870161306,0.0246165004870076,0.4871472226815307,0.3908865178470609,9.68394232198289
1520530964.7065427,-0.0317473524334048,0.0302607227770215,0.0205542220700943,0.4823369518297149,0.3585101010547717,9.722371464857568
1520530964.7115588,-0.033257207529358,0.0308523707022387,0.0170443719336254,0.4390445141633727,0.3609117536603229,9.73906052356948
1520530964.7165718,-0.0332625196579793,0.0311626944372946,0.0100124017255029,0.4642984361354058,0.3141433102879645,9.70748243485135
1520530964.7215898,-0.0345239730920801,0.0320567518113634,0.0024461195125538,0.433031675598603,0.3057517624831538,9.748469990090852
1520530964.7266057,-0.0340308236017622,0.029161314226213,-0.0043406921846155,0.4270188370338331,0.285366843584958,9.696251916200366
1520530964.7316208,-0.0350396178331472,0.0297582580799882,-0.0097452970389356,0.4161957276172476,0.2865668269480522,9.66032962978816
1520530964.7366366,-0.0337868127787921,0.0294782922964208,-0.0138080421791203,0.4642984361354058,0.272173395468514,9.711009793587746
1520530964.7416527,-0.0327845616837679,0.0286103599852513,-0.0159809454953442,0.4390445141633727,0.2961581707960279,9.684502902040666
1520530964.746667,-0.0322852571547527,0.0286214833623518,-0.0200400673804053,0.4282214047467871,0.3189426817805538,9.61950596866649
1520530964.7516837,-0.0297762676729556,0.0274649425503429,-0.0230296318092705,0.4630958684224517,0.3213382464884062,9.657514933840856
1520530964.7566988,-0.0252540295810462,0.0277631982948608,-0.0249296310141533,0.4667035715613136,0.3561130377874857,9.644662324336926
1520530964.7617135,-0.024249096928599,0.0280571619375238,-0.0257409125096327,0.4534753267188202,0.3753003148217022,9.709852431965892
1520530964.7667298,-0.0239952459079753,0.0300976805151835,-0.0259963635316381,0.4691087069872215,0.3848922206294655,9.715501631289449
1520530964.7717466,-0.0222331667610635,0.030673854447883,-0.0232897254649059,0.4715138424131294,0.4136714034714451,9.742179467981645
1520530964.7767627,-0.0222342684029152,0.0292140180871473,-0.0222186573078489,0.4582855975706359,0.4040793103437528,9.77137117717181
1520530964.7817776,-0.0222337430751017,0.0286268784461547,-0.0205998281030606,0.429423972459741,0.4112764007233803,9.768158650627884
1520530964.7867937,-0.022483897140376,0.0297937749619202,-0.0211315608303534,0.433031675598603,0.4160726814371379,9.80298317672818
1520530964.7918088,-0.0219773437950739,0.0312443386298578,-0.018686465787237,0.433031675598603,0.4136744005903122,9.812282667040432
1520530964.7968235,-0.0252461182067959,0.0306639318085691,-0.0200375740348352,0.4125880244783858,0.4220699757736004,9.846175642297284
1520530964.8018408,-0.0227340080836876,0.0306678300882572,-0.0211244248511534,0.4005623473488463,0.3980881039049889,9.831208208241694
1520530964.8068557,-0.0239933170845719,0.0289204875089271,-0.0216765215384567,0.4234111338949714,0.4208699924105062,9.783315692600866
1520530964.8118727,-0.0242488381968233,0.0263001136009528,-0.0225077002706754,0.3981572119229384,0.4076814146122211,9.785898649426004
1520530964.8168876,-0.0227462789712506,0.0230983882582523,-0.0236171381323137,0.3909418056452147,0.3944914319144671,9.789468174358964
1520530964.821905,-0.0230045286950187,0.0181454812697993,-0.0239250097552066,0.4354368110245108,0.4220681962342731,9.741360290345469
1520530964.8269198,-0.020744078105224,0.0146380981450749,-0.0196271529539438,0.4594881652835898,0.4280620251520455,9.741120342520691
1520530964.8319347,-0.0159650487034921,0.0163817200845139,-0.0171877691211303,0.4366393787374648,0.4184706813040699,9.770405692162266
1520530964.8369515,-0.0142060980621537,0.0128704978933671,-0.0115362493938187,0.4534753267188202,0.4760281103883834,9.739969950278615
1520530964.8419666,-0.0109392682023592,0.0087741836566133,-0.0048097925931493,0.4967677643851623,0.4964101258276767,9.78717659160301
1520530964.8469808,-0.0069145391140805,0.007299168669985,0.0024763635972948,0.4931600612463005,0.5072026706182864,9.793011902490138
1520530964.8519976,-0.0013863255783591,0.0037901517430312,0.0078503365796353,0.5015780352369782,0.4952106107644055,9.777833789082802
1520530964.8570137,0.0013794473489982,0.0011520200937941,0.0140477504615928,0.4679061392742675,0.4544424588473765,9.766579848655034
1520530964.8620288,0.0061544230232866,-0.002359477492988,0.020234761301451,0.4679061392742675,0.4280613695322934,9.80379418065354
1520530964.8670435,0.0081644529517693,-0.0058698727975254,0.02561526840959,0.457083029857682,0.378897455112047,9.776056014169354
1520530964.8720608,0.010674050073174,-0.0096627145454586,0.027746068235062,0.4137905921913397,0.3513205971322764,9.77766643495766
1520530964.8770766,0.0141886269011196,-0.0119909555240825,0.0271806576349844,0.3704981545249975,0.3429299859271117,9.822257472624084
1520530964.8820918,0.0161907964415768,-0.0157679686996073,0.0233603811971719,0.3680930190990896,0.3117525222383063,9.797906262518824
1520530964.8871088,0.0156821770427215,-0.0180897722251523,0.0198264333145219,0.3632827482472739,0.3009606330674488,9.778207159576052
1520530964.8921237,0.0199509208861013,-0.0177843306254981,0.015221441873898,0.3392313939881948,0.3117547700774566,9.801673615735712
1520530964.8971376,0.0234676147538249,-0.0166072161037937,0.0114361575467206,0.3861315347933989,0.3705089980860681,9.789538381369663
1520530964.9021547,0.0232190915903468,-0.0131041443522105,0.0090283882305959,0.3692955868120435,0.3944931177938298,9.764111698381816
1520530964.9071708,0.0254832901217157,-0.0107699967407888,0.008230334715927,0.3789161285156752,0.3872975259736358,9.717539315797138
1520530964.9121857,0.0279994029860428,-0.0081450945776004,0.0077045834591977,0.382523831654537,0.4016869300746965,9.71284159273999
1520530964.9172018,0.0277491195548807,-0.0060996738935494,0.0055562446124262,0.3933469410711226,0.3848981212072349,9.69415831471414
1520530964.922217,0.0277562468695418,-0.0008547524022773,0.0055962601479988,0.3548647742565962,0.3297406588491099,9.694586666125266
1520530964.9272327,0.0290206602534965,0.0049734304212888,0.005638388237834,0.35606734196955,0.314151739684778,9.663212275715171
1520530964.9322488,0.0282729266691905,0.010806653049064,0.0035198829466298,0.3717007222379515,0.2709814668623749,9.680534365507905
1520530964.9372647,0.0267661961466797,0.0140222185820528,-0.0005110512138552,0.3344211231363789,0.2529972639700842,9.698346921659152
1520530964.9422798,0.0280201930189426,0.0160798848964388,-0.0069909247346742,0.3211928782938855,0.2613922771935849,9.74262896216542
1520530964.9472947,0.027765997022618,0.0163820974342071,-0.0110464233646118,0.4029674827747541,0.2685807508564697,9.742988146247152
1520530964.9523118,0.0260055017234088,0.0169714616106791,-0.0137441690901057,0.384928967080445,0.2865692621071317,9.725714022691514
1520530964.9573278,0.0239959030145522,0.0175534430209314,-0.013735989133316,0.4198034307561095,0.2457957715721208,9.721927901726986
1520530964.9623427,0.0224909719495569,0.0204703397159493,-0.0150636874200983,0.4017649150618003,0.2877670912910403,9.715089686974324
1520530964.9673588,0.0207313979400866,0.0207639487787216,-0.0161403808554944,0.3584724773954579,0.2913678843200042,9.70388612144573
1520530964.972375,0.0184716490980869,0.0239763052208141,-0.0190877312625606,0.3729032899509054,0.2937650412472549,9.716526905586528
1520530964.9773898,0.0142023015472304,0.027770643073159,-0.0220269017128371,0.3909418056452147,0.2577894236453998,9.688494955016363
1520530964.9824057,0.0124405321183191,0.0280715364466094,-0.0258090541072455,0.4029674827747541,0.2517927849286895,9.70116733464476
1520530964.9874218,0.0089204118234149,0.0263203940431329,-0.0252747667015021,0.3885366702193067,0.2302093812268329,9.716436714833218
1520530964.9924378,0.004895808168893,0.025453406345401,-0.0285205191359045,0.408980321339524,0.2218138060435447,9.71159733843184
1520530964.9974527,0.0013706736669746,0.0204992194349061,-0.0288223233562702,0.410182889052478,0.2541905038157277,9.720851212849428
1520530965.0024698,-0.0019028562199857,0.0149587197700281,-0.0277763109910203,0.4390445141633727,0.3105478558769823,9.75189321931438
1520530965.0074835,-0.0056745419400162,0.0120375702154315,-0.0256271738278365,0.4414496495892807,0.3753012514213482,9.739023081385634
1520530965.0124986,-0.0064350874682229,0.0050345765898956,-0.0221620310587366,0.4847420872556228,0.410072951941596,9.738567788516049
1520530965.0175166,-0.0086976198400952,0.0018168057927138,-0.0178535501532805,0.4847420872556228,0.4268609178693762,9.787361463843755
1520530965.0225308,-0.0122181400290561,-0.0016891996541302,-0.0148976881962835,0.4474624881540504,0.4712320169945548,9.849274684614343
1520530965.0275478,-0.0127191617037927,-0.0034508154881914,-0.0100402671353762,0.4751215455519912,0.4796238457792593,9.831565123628506
1520530965.0325637,-0.0147265689253392,-0.0043395969046919,-0.004902830583011,0.4823369518297149,0.4736275817024074,9.819879300444002
1520530965.0375776,-0.0172379812327836,-0.0061020003830865,-4.16757359331596e-05,0.4522727590058661,0.4856213274356509,9.856186696042956
1520530965.0425937,-0.0184946126083759,-0.0081509255246589,0.0031916470340711,0.4378419464504187,0.4916181534722904,9.852834878161168
1520530965.0476086,-0.0189978767566473,-0.0110758941746882,0.0072285380660363,0.4222085661820174,0.4232683669172965,9.82748652923912
1520530965.0526257,-0.0192481249301089,-0.0122502719122151,0.0104666631988841,0.3933469410711226,0.4076817892520795,9.813836924552966
1520530965.0576415,-0.0217615523048819,-0.0122497996054963,0.0099302386397948,0.4186008630431554,0.4148746649333002,9.798476230927667
1520530965.0626557,-0.0200033426011701,-0.0137096752085081,0.0112685856298538,0.381321263941583,0.4148775683922027,9.811622671173293
1520530965.0676737,-0.0190004760022762,-0.0142869514234525,0.0093684512948407,0.408980321339524,0.4064814312491269,9.77998375348632
1520530965.0726888,-0.0200073022204263,-0.016623520481437,0.0112463547767579,0.4306265401726951,0.3968866219824612,9.7588638260087
1520530965.077705,-0.0169895600417549,-0.0148733034201116,0.0109835467134584,0.4282214047467871,0.437657583698428,9.769306774175035
1520530965.0827198,-0.0149742453780892,-0.0125472670059775,0.0131619647769744,0.4667035715613136,0.4196674802283679,9.761976888732825
1520530965.0877368,-0.0122053870671211,-0.0108051611419397,0.0158756282918597,0.457083029857682,0.4520450209402322,9.763201100978714
1520530965.0927515,-0.007420418236505,-0.0046907712931073,0.018348358404317,0.4606907329965438,0.4772266888520087,9.772438581318944
1520530965.0977666,-0.0036402017062235,0.0028852463874973,0.0189402495650989,0.4655010038483596,0.4808237354823889,9.774712540983929
1520530965.1027837,-0.0008690107456643,0.0066685008047209,0.0211283828853489,0.4234111338949714,0.4580433455363052,9.797225170534755
1520530965.1077988,0.0039090503122347,0.0075372407312135,0.0238316433581349,0.4474624881540504,0.4652363148774905,9.78768690173698
1520530965.1128137,0.0071793654496966,0.0095760270511022,0.0246527752404785,0.4558804621447281,0.4352571486724166,9.806228503090743
1520530965.1178298,0.010948365680173,0.0098718021357915,0.0235658138931134,0.4306265401726951,0.435259115531673,9.79717715764194
1520530965.1228456,0.0147167033526859,0.0087062839976096,0.0240910124946077,0.3921443733581686,0.3836990744437867,9.810385584531728
1520530965.1278608,0.0187405660695813,0.0116246182834766,0.0230235921917575,0.3680930190990896,0.3813026667962528,9.797838440842344
1520530965.1328778,0.0212554087363374,0.0154245281597181,0.0189896366295504,0.3729032899509054,0.3417306581837697,9.761803746231084
1520530965.1378927,0.0230132303423858,0.0166002250615629,0.0154781652611735,0.360877612821366,0.3117530841980939,9.763112174230807
1520530965.1429088,0.025524066335792,0.0163156525382293,0.0133069077759409,0.3668904513861356,0.2961637903939036,9.72588024382391
1520530965.1479237,0.0287883597325755,0.0160328322436564,0.0105931583290918,0.405372618200662,0.2374029125278058,9.724400835687284
1520530965.1529408,0.0302970779289765,0.0172011463792814,0.0097876126429985,0.408980321339524,0.2050258401157645,9.712775853135556
1520530965.1579556,0.0312976118782793,0.0145827216111512,0.0084130085026208,0.4065751859136161,0.2038268870122809,9.65817966673936
1520530965.1629698,0.0330541475582324,0.0110795121617502,0.0110885233750188,0.4378419464504187,0.2314046815916974,9.685739895370794
1520530965.1679866,0.0317912278459239,0.0055390717101379,0.0124013478499994,0.4691087069872215,0.2613807570179397,9.743513528133423
1520530965.1730027,0.029772302470834,-0.0005800625762784,0.0120878509487674,0.4606907329965438,0.34412210185318,9.733055483532208
1520530965.1780188,0.031773887832991,-0.0093310087856809,0.0158050671459265,0.5027806029499322,0.3884870194206954,9.755845420089434
1520530965.1830337,0.0305122383182535,-0.0160464569503463,0.0206260959263847,0.4691087069872215,0.4268621354489159,9.775892190035105
1520530965.1880507,0.0269901303494591,-0.0221814790224366,0.0259968631787065,0.4835395195426689,0.4400515561868824,9.797819601756403
1520530965.1930656,0.0272377322231981,-0.0253887956603202,0.0267835802047334,0.4354368110245108,0.4340596004684018,9.818050097931431
1520530965.1980798,0.0254733596165269,-0.0297624380517087,0.0275651386756926,0.4510701912929122,0.406478153150366,9.799330523733126
1520530965.2030966,0.0252192890539591,-0.0318022281983006,0.0275500438017968,0.4342342433115569,0.3848949367684387,9.79602901076693
1520530965.2081127,0.0254673339437174,-0.0335475231822451,0.026454054983063,0.4125880244783858,0.3585155333327182,9.811373298650944
1520530965.2131276,0.0239540876782842,-0.0367497015603779,0.0250796719047793,0.4618933007094978,0.3621091145444085,9.816700603090814
1520530965.2181437,0.0229466067664328,-0.0376206068090843,0.0237221400624297,0.4642984361354058,0.3824943144224981,9.766685124179292
1520530965.2231598,0.0247067061037165,-0.0385013555128492,0.026417662702614,0.4618933007094978,0.3872910634360788,9.79227102392797
1520530965.2281756,0.0239468741196978,-0.0414089402727929,0.023961918956221,0.4691087069872215,0.4196672929084387,9.770088486299509
1520530965.2331915,0.0234380743687299,-0.0454863352727733,0.0231200915207257,0.528034524921965,0.4112687206062834,9.747442388779206
1520530965.2382066,0.0254512798568797,-0.0437386973268181,0.0236707880382151,0.4787292486908531,0.4256622457457863,9.76766471124341
1520530965.2432227,0.0277141611365839,-0.0414001791289896,0.0212494591481388,0.4354368110245108,0.4052802303064929,9.78088955553841
1520530965.2482378,0.0287277187074694,-0.034110073107026,0.0194093481164846,0.4715138424131294,0.4160696843182709,9.752636424891117
1520530965.2532537,0.0287340580304103,-0.0279844421542651,0.0170211198448749,0.4582855975706359,0.3956853273798627,9.76673078672968
1520530965.2582698,0.0294868646722173,-0.0250535476001516,0.0108193949224284,0.4414496495892807,0.3824960939618254,9.794798975152654
1520530965.2632847,0.0294889385900327,-0.0212553507103947,0.0070606524888358,0.4546778944317741,0.4052787317470594,9.824863744895916
1520530965.2683008,0.0304955452662386,-0.0189180532213424,0.0049122031110174,0.4630958684224517,0.3932866718931785,9.834090654527182
1520530965.2733166,0.0282391405396253,-0.0130825076025461,0.0017143145758362,0.5196165509312874,0.3573080571724564,9.8312513091442
1520530965.2783337,0.0287433220455047,-0.0119167725822911,0.0017222734705319,0.5593012854587678,0.3848851961321208,9.825027427708294
1520530965.2833488,0.0267329745347595,-0.0122104016160531,0.0022648759631954,0.5713269625883074,0.3812868382622362,9.822589597253344
1520530965.2883637,0.0237197643572514,-0.0104632759187959,0.0022838151543088,0.5460730406162744,0.3872845072385571,9.792613813932348
1520530965.2933807,0.0214610622387474,-0.0098886772747634,0.0049979207933822,0.5641115563105836,0.4040710682668684,9.7889354354738
1520530965.298395,0.0204636018766623,-0.0072804505415824,0.0101601674763771,0.6278476450971431,0.3884772787843775,9.833653883108
1520530965.3034115,0.0202165213986056,-0.0061237520607662,0.0134160772917016,0.6098091294028338,0.4532322665481414,9.79773985205412
1520530965.3084266,0.0174547394160739,-0.0052550520762529,0.0150511558790223,0.5713269625883074,0.4508369828201828,9.77371172949966
1520530965.3134408,0.0146959918309282,-0.0026402302211856,0.0175112106659042,0.5340473634867349,0.443645043738608,9.788027329735
1520530965.3184578,0.0149566565160815,0.0023046640255214,0.0207950871437107,0.5340473634867349,0.4748226947473426,9.801942654365138
1520530965.3234746,0.0129522484342205,0.0063818029011528,0.0213710359160179,0.4967677643851623,0.4532410705848134,9.78489439990756
1520530965.3284898,0.0099444053036896,0.0119161990221497,0.0216894211120572,0.4739189778390372,0.4256626203856447,9.807224425912567
1520530965.333505,0.0054218653580418,0.0136678330036314,0.0198173393714898,0.4438547850151885,0.3968855917228506,9.815680124144748
1520530965.3385217,0.0034138544290187,0.01687883103913,0.0174106140329548,0.4522727590058661,0.3884909531392084,9.793525638994348
1520530965.3435366,0.0024124462440705,0.0209636480476062,0.0152792369531644,0.4703112747001755,0.4124723567079969,9.853758161982356
1520530965.3485518,-0.0006001013754741,0.0241720669677346,0.0136860161954183,0.481134384116761,0.370501598948865,9.838585871943408
1520530965.3535678,-0.005875530274723,0.0250419676900345,0.0145141243277485,0.4835395195426689,0.3752979733225873,9.80834204166386
1520530965.3585846,-0.0086438632578776,0.0227127221850041,0.0134192900176514,0.503983170662886,0.3657032577158862,9.851151736724718
1520530965.3635988,-0.0126652169052004,0.0221276494106836,0.0136928573152746,0.5075908738017479,0.3716986788530568,9.829030039729028
1520530965.368615,-0.013420391454299,0.0203754047249622,0.0150336484527372,0.4943626289592545,0.4088730622384663,9.819825394199222
1520530965.3736308,-0.0171876274849604,0.0230007592238798,0.0134373816941859,0.4787292486908531,0.4040777181243546,9.804874365884915
1520530965.3786466,-0.0219593610163117,0.0238672147019241,0.0156172858594797,0.4691087069872215,0.4244638546020902,9.797975263843767
1520530965.3836615,-0.0222090759976977,0.025032654355554,0.0156266449239893,0.4895523581074387,0.4544407729680139,9.793098468586402
1520530965.3886778,-0.0227075846707307,0.027067778549114,0.0172664153431065,0.4931600612463005,0.4616353345285973,9.820947792282883
1520530965.3936937,-0.0234555927153366,0.0288041354491614,0.0216098883591977,0.4967677643851623,0.4652324748189421,9.836017040500703
1520530965.3987088,-0.0277256106884185,0.0282102230464855,0.025130473130907,0.4642984361354058,0.4724298461784634,9.849109644485129
1520530965.403725,-0.0269707497894514,0.0276219219099823,0.0272889939576837,0.4727164101260834,0.4916154373333172,9.837387560119955
1520530965.4087408,-0.0284783702761318,0.0264499656190182,0.0294472691232831,0.4546778944317741,0.4880194209625475,9.843377363755195
1520530965.4137557,-0.0274741041137791,0.0238191575227353,0.0326719452132263,0.4402470818763268,0.4400549279456078,9.82729458264323
1520530965.4187727,-0.0267224069780858,0.0223632586839637,0.0323888837209632,0.4715138424131294,0.4256628077055739,9.842112154651993
1520530965.4237888,-0.0282367980073333,0.0179940853345236,0.0315467000932436,0.4414496495892807,0.4076780428534957,9.81917944206701
1520530965.4288037,-0.0284938598453245,0.0139153319279493,0.0312454977262795,0.4198034307561095,0.3729046564538851,9.834531915325773
1520530965.4338188,-0.0272491543815943,0.0060520841240887,0.0298304113270578,0.4486650558670043,0.3405256171825873,9.816850406817997
1520530965.4388356,-0.0257512173332412,-0.0015247797144118,0.0303109025611831,0.4198034307561095,0.3405278650217376,9.781104865591434
1520530965.4438517,-0.0237494947409343,-0.0082272930599505,0.0307971296046945,0.3789161285156752,0.3405310494605338,9.798934996823215
1520530965.4488657,-0.021494713051855,-0.0134720568824151,0.0310234594555813,0.3789161285156752,0.3513233132712497,9.76987087391449
1520530965.4538827,-0.0169784183209608,-0.0190080475633654,0.0315139116076178,0.410182889052478,0.3633122823462989,9.746311969970527
1520530965.4588978,-0.0142154994388769,-0.0216367096087209,0.0341942288428593,0.3969546442099844,0.3777029976868639,9.724345958390057
1520530965.4639127,-0.0094466317491922,-0.0268841310311078,0.035768620940539,0.3897392379322607,0.3836992617637159,9.709302470627518
1520530965.4689298,-0.0041697993543534,-0.0283440851186716,0.037641525596602,0.3789161285156752,0.3860983855502229,9.768674819122031
1520530965.4739456,-0.0009065252876274,-0.0321359030689119,0.0395003793563588,0.359675045108412,0.3729093394521149,9.756091379260187
1520530965.4789598,0.0061270270714081,-0.0338799966153666,0.0389328808011018,0.3199903105809315,0.368115868537295,9.74486088393706
1520530965.4839756,0.0106506725910385,-0.0327083157200379,0.037310096748049,0.3019517948866224,0.3645198521665254,9.758985695251834
1520530965.4889927,0.0156751986231245,-0.0332869303705866,0.0364846784242997,0.3428390971270566,0.3345381571424073,9.769076252402554
1520530965.4940078,0.0222115713571849,-0.0286098347616639,0.0319088327538778,0.3127749043032078,0.3489301837224767,9.75076054347471
1520530965.4990227,0.0284898276654961,-0.028300691793405,0.0262179239434785,0.3151800397291158,0.3117566432767485,9.777502693825635
1520530965.5040398,0.0330116306056484,-0.0265375006706769,0.0213530353102301,0.3199903105809315,0.3105571282134772,9.800699922023565
1520530965.5090537,0.0370268762683676,-0.027688351731961,0.0164668492704284,0.3211928782938855,0.2757819622745394,9.792587120125845
1520530965.5140698,0.0435562941756173,-0.0294275431720244,0.0140064628904054,0.3416365294141027,0.3033605997936373,9.774929080050567
1520530965.5190856,0.0468148716175917,-0.0326183812909838,0.0091061154232506,0.3464468002659185,0.3249447527752106,9.8132119622076
1520530965.5241027,0.0518313490452776,-0.0381461623191048,0.0066196292738309,0.4017649150618003,0.364512078389464,9.818445661187848
1520530965.5291178,0.0545912805840691,-0.0413503091083681,0.006590041379441,0.383726399367491,0.3956911342976675,9.825563697939064
1520530965.5341337,0.0578515673075028,-0.0457176118025161,0.0057389900095663,0.4161957276172476,0.4304636777575967,9.80429515940137
1520530965.5391498,0.0606094288606099,-0.0512564769654616,0.0070443469122057,0.410182889052478,0.4508495332554385,9.795036654282503
1520530965.5441668,0.060105639384525,-0.0535943059744983,0.0094624087393828,0.4426522173022346,0.4784272341748905,9.780747995505624
1520530965.5491807,0.0616069636702272,-0.0588408220257236,0.010231230551886,0.4234111338949714,0.4652381880767824,9.789083146819724
1520530965.5541968,0.0663746434741351,-0.0649623970299892,0.0117989533936369,0.4318291078856491,0.4988134643125906,9.802914197376378
1520530965.5592127,0.0683791809218839,-0.0699180600739061,0.0128396107408083,0.4017649150618003,0.476032137766861,9.779986162148395
1520530965.5642266,0.0698843315288233,-0.0728356851999918,0.0144378549234919,0.4041700504877081,0.4220706313933526,9.782339660210218
1520530965.5692427,0.0738947276081167,-0.0812879033581577,0.0157186473566789,0.3777135608027212,0.4124795685252707,9.765174366852309
1520530965.5742588,0.0753946483982289,-0.0859443660441192,0.0137864563807889,0.382523831654537,0.3920938066873935,9.776768864936036
1520530965.579275,0.0751406680117174,-0.0871063604534934,0.0124253012833157,0.3729032899509054,0.3872979942734588,9.801272205783048
1520530965.5842907,0.0763960252576076,-0.0853459061149427,0.0081075718443969,0.3368262585622869,0.3825042423787452,9.792330883199082
1520530965.5893056,0.0771514232807814,-0.0821309113442144,0.0046135289662724,0.3584724773954579,0.3765068543823181,9.785153175154344
1520530965.5943208,0.0753871487144285,-0.0826998009662358,-0.0007985680594721,0.3356236908493329,0.3765086339216454,9.802807730539728
1520530965.5993378,0.0748852606683086,-0.0800680675278017,-0.0042947234918592,0.3404339617011487,0.3705125571647227,9.822523204231995
1520530965.6043537,0.0751440867061148,-0.0730681845376204,-0.0066767492308115,0.3404339617011487,0.3693134167413098,9.800443638441084
1520530965.6093688,0.0696131445588767,-0.0718917006911453,-0.0115274151038262,0.3440416648400106,0.4016899271935635,9.758539768760174
1520530965.6143837,0.0658447245745695,-0.0686770212580317,-0.0155541487548694,0.408980321339524,0.4064814312491269,9.754416586493498
1520530965.6194007,0.0633360056209413,-0.0648870932343697,-0.0166027649967365,0.4041700504877081,0.4268671930870041,9.749794952135083
1520530965.6244168,0.0573080053503537,-0.0610949014329523,-0.0189975765923113,0.3692955868120435,0.4268699092259773,9.757107262496762
1520530965.6294315,0.0510217984779607,-0.0625484580094163,-0.021161391104286,0.4065751859136161,0.4364601291543779,9.792761513614344
1520530965.6344466,0.0477535533261831,-0.0622525259556228,-0.0233174677836591,0.4065751859136161,0.4484515333885066,9.807857691626694
1520530965.6394637,0.0414742111045445,-0.0581675912203186,-0.0262506813624555,0.4390445141633727,0.4688343917674813,9.783116753297335
1520530965.6444788,0.0354380289315379,-0.0599095201442626,-0.0294993692666161,0.4222085661820174,0.4808271072411143,9.786755362557466
1520530965.6494958,0.0286578061974436,-0.0540742898630809,-0.0332299485747159,0.4186008630431554,0.4856239499146596,9.772840072919116
1520530965.6545088,0.0258984509726903,-0.0488231670720894,-0.0358902580421711,0.4618933007094978,0.4940145611198243,9.76311335387927
1520530965.6595256,0.0201192404616186,-0.0473641383266768,-0.0374916833557902,0.5172114155053795,0.5107982186892331,9.763720694488386
1520530965.6645408,0.0138374793464637,-0.0447346693657013,-0.0409771041529369,0.5160088477924256,0.5191922953130879,9.822993555835238
1520530965.6695588,0.011327529385096,-0.0415260535344895,-0.0425712583572256,0.5412627697644586,0.540774856075263,9.843645292719737
1520530965.6745727,0.0045491452983488,-0.037745811996782,-0.0406359354485667,0.5460730406162744,0.555164166516359,9.867989463461637
1520530965.6795878,-0.0014780669805184,-0.0348343296568535,-0.0406025032369591,0.6386707545137286,0.5467629717351952,9.865934215537342
1520530965.6846037,-0.0072582536996849,-0.0371771399565368,-0.0370924566374794,0.6651272441987155,0.5731420005310572,9.835435236022777
1520530965.6896198,-0.0105211906549722,-0.0386550101538739,-0.0297927654721669,0.678355489041209,0.5731409702714467,9.780685714553789
1520530965.694635,-0.0157968940145209,-0.0418819751593018,-0.0225026790325414,0.6687349473375773,0.5851331237852921,9.78192980556692
1520530965.699653,-0.017558502751975,-0.0471428828917895,-0.0168579636912888,0.6579118379209918,0.5911296688420379,9.790164312058042
1520530965.7046666,-0.0228345550193557,-0.0494905952978641,-0.0114550292670431,0.6266450773841891,0.6091192103523104,9.767208224351997
1520530965.7096827,-0.0258460990373671,-0.0486270927863671,-0.0079256626851425,0.6278476450971431,0.5683483422963082,9.770722708692718
1520530965.7146978,-0.0280998300708196,-0.0445566082458876,-0.0049143341264528,0.6194296711064654,0.5323747852136742,9.77200186821941
1520530965.7197137,-0.0318599858409135,-0.0378569693823442,-0.0045856564193613,0.5689218271623995,0.5275821572385357,9.78876817330538
1520530965.7247298,-0.0305921420976471,-0.0299912801609312,-0.0037163290446553,0.5665166917364914,0.5335780466755293,9.759732137866507
1520530965.7297456,-0.0305821058193567,-0.020658234114745,-0.0068917410655633,0.5653141240235376,0.5143918935608879,9.748141112808735
1520530965.7347617,-0.0303235855674198,-0.0130719399146389,-0.0106220501134026,0.5424653374774125,0.5227876560641054,9.726274588375924
1520530965.7397778,-0.0308168526272325,-0.0049075426129789,-0.0127232374454014,0.5845552074308008,0.4796153227224811,9.727069151568214
1520530965.7447927,-0.029804569186049,0.0020940926059629,-0.0156477551459701,0.6386707545137286,0.4796111080240743,9.676570233997609
1520530965.7498078,-0.0290444235518989,0.0073422231881312,-0.0166913233638164,0.6242399419582811,0.4952010574480168,9.690641220715108
1520530965.7548237,-0.0287898197972556,0.0117218307258799,-0.0199049945582587,0.5881629105696626,0.4856107438596517,9.69332601503033
1520530965.7598407,-0.0272828579364075,0.0128959723100475,-0.0228749074115618,0.5989860199862482,0.4760167775326673,9.68393287260274
1520530965.764855,-0.0267755087351232,0.0163927835486455,-0.0228491638343894,0.6182271033935114,0.4832101215137111,9.718602894290994
1520530965.7698708,-0.0252585694464715,0.0213388985041289,-0.0198381668688408,0.6386707545137286,0.520381882420112,9.711394795089692
1520530965.7748878,-0.0252552684530477,0.0242549290702612,-0.0206275737034486,0.6170245356805575,0.5011973215248687,9.715110627396015
1520530965.7799027,-0.0232439957204324,0.0257162815063981,-0.0219729215425774,0.5941757491344324,0.4904068372534802,9.715343547521364
1520530965.7849188,-0.0227420566880878,0.0257186637106849,-0.0227854926768237,0.5929731814214785,0.479614667102729,9.70025790522619
1520530965.7899346,-0.0224858338280414,0.0280440109360272,-0.0206038075504085,0.6110116971157877,0.4664227175457184,9.74193237446343
1520530965.7949488,-0.0232424589268236,0.0257111824889235,-0.0200791002712688,0.6350630513748667,0.4832088102742067,9.769573357486667
1520530965.7999656,-0.0204833193118833,0.0219242666450744,-0.0201131343362779,0.6182271033935114,0.4975998065946656,9.745318173167036
1520530965.8049808,-0.0199848106388503,0.0198891424515144,-0.0217529047553951,0.6350630513748667,0.4604251422293622,9.71962338490099
1520530965.8099968,-0.0202354939640691,0.0201797000921978,-0.021479669050913,0.6001885876992021,0.4820123859897671,9.682753176895844
1520530965.8150108,-0.0182276124009338,0.0178472262249847,-0.0206895498318565,0.6074039939769258,0.4952023686875211,9.691967235459291
1520530965.8200288,-0.020487808191084,0.0181340824970634,-0.0193303967575989,0.6446835930784983,0.4904029035349672,9.697419775838174
1520530965.8250446,-0.0179680023035385,0.0225029212376024,-0.0182195341270633,0.6266450773841891,0.5203828190197579,9.695241830294888
1520530965.8300598,-0.0179611063272146,0.0233581356117181,-0.0111786715777025,0.5953783168473864,0.5311775179895533,9.731562100289516
1520530965.8350756,-0.0154421825395766,0.0262664095604535,-0.0087261948942088,0.5869603428567087,0.5263816119156539,9.746756584446349
1520530965.8400917,-0.0149333435987771,0.0285874846549307,-0.0049217011156575,0.6230373742453272,0.5683487169361665,9.680122300489332
1520530965.8451056,-0.0146778264186568,0.0297443800468303,-0.0016667247468757,0.6350630513748667,0.5539580952555662,9.692802865492474
1520530965.8501236,-0.0116567048668985,0.0308979878632815,0.0032063930413289,0.6254425096712352,0.5359717381840898,9.741724092109832
1520530965.8551378,-0.009893088926378,0.0314690627785064,0.0078068523793698,0.6170245356805575,0.5227818491463004,9.706954571609993
1520530965.8601546,-0.0048687432464045,0.0291348566535222,0.0096735545027753,0.5917706137085245,0.5191863947353184,9.718825325354882
1520530965.8651688,-0.0046171425635777,0.0270850653830644,0.0134451687249541,0.5965808845603403,0.4832118073930738,9.68975998645119
1520530965.8701856,-0.0028569530502378,0.0270821124165171,0.014794631141561,0.5424653374774125,0.4772203199744162,9.713535439771002
1520530965.8752017,-0.0005932406568508,0.0282470797634282,0.01534041476516,0.5580987177458139,0.4604311364670963,9.702940349198984
1520530965.8802178,0.0009123529661078,0.0267914762912817,0.0150559531030829,0.5352499311996888,0.4232595628806246,9.714820434330017
1520530965.8852327,0.0011652787648614,0.0276642714665664,0.0156032474275428,0.5148062800794716,0.448443103991693,9.728940591615649
1520530965.8902478,0.0029229631407598,0.0267915355045473,0.0153227652128135,0.5196165509312874,0.4412478868113574,9.711468628112154
1520530965.8952627,0.0031712236403312,0.0235820335734604,0.0169211199265442,0.5184139832183335,0.4916118782546625,9.695161205561025
1520530965.9002798,0.004428948793513,0.024163838043619,0.0174643242726092,0.4943626289592545,0.4928128918773674,9.68609698571655
1520530965.9052958,0.005184291898331,0.0232812386555517,0.0207028055976812,0.4438547850151885,0.4640374554339714,9.658725207327183
1520530965.9103117,0.0049316287634842,0.0221148736597706,0.0209649258756155,0.4390445141633727,0.4424533024523981,9.649495924025633
1520530965.9153256,0.0059348873921726,0.0203655034560444,0.0214908122624751,0.4258162693208793,0.4532465965227245,9.682154186311209
1520530965.9203427,0.0089470861038854,0.0180363371352693,0.0211968810048413,0.4366393787374648,0.4436526301957402,9.676247475746276
1520530965.9253588,0.0107058211354107,0.0159893218912649,0.0241540571996885,0.381321263941583,0.4292672534731571,9.64890848551162
1520530965.9303746,0.010953160345243,0.0130755750738777,0.0241313596233213,0.405372618200662,0.3597152357159187,9.637120766517384
1520530965.9353898,0.0114527667279965,0.0110368087249787,0.0238443186837103,0.3320159877104711,0.3417338426225659,9.677365209491583
1520530965.9404058,0.0139596862241092,0.0075455495392876,0.0221896990518747,0.2742927374886814,0.3429374787242794,9.725573784983778
1520530965.9454207,0.0162146090754696,0.0058126970967616,0.0167612421125506,0.2538490863684641,0.2949734540071627,9.721170968696136
1520530965.9504378,0.0184655723075737,0.0011659993813066,0.0113105543201307,0.20694894556326,0.2805874216648274,9.756505816594329
1520530965.955453,0.0214714513570008,2.859468814412139e-05,0.0012858631512909,0.1780873204523654,0.2614034227293718,9.79050762204891
1520530965.9604688,0.019197459682072,-0.0028584563040832,-0.0090129112366098,0.1708719141746417,0.2578065634189207,9.808013519718502
1520530965.9654827,0.0209448608442975,-0.0069167544274933,-0.0166225865790778,0.1768847527394113,0.2230310228401245,9.795205321778202
1520530965.9704998,0.0234416304247562,-0.0130086214267861,-0.0264135908557367,0.1167563670917137,0.23382796964907,9.845752240577692
1520530965.9755158,0.0239230774772871,-0.0243534818723625,-0.0335354179227853,0.1432128567767008,0.2326267687064361,9.837360890996028
1520530965.9805307,0.0266680565710926,-0.0362889664454632,-0.0374193409190802,0.1684667787487337,0.2817895592071073,9.834742853993404
1520530965.9855468,0.030925493938611,-0.0441415631789421,-0.0423571246442737,0.164859075609872,0.3033743678084328,9.84289192873572
1520530965.9905615,0.03493395726237,-0.0528800668469263,-0.0429723765677049,0.1672642110357798,0.3321535506504125,9.830056870984466
1520530965.9955778,0.0376811748975792,-0.0651156771201336,-0.0436119718984946,0.21296178412803,0.3633276425804925,9.89001316163917
1520530966.0005937,0.0434441549018316,-0.0770579929684799,-0.0445254907191318,0.2334054352482473,0.3897071396761776,9.886302018353772
1520530966.0056088,0.0479524402181572,-0.0892994699325056,-0.0427334400497096,0.2574567895073261,0.4040949515578401,9.913945340055507
1520530966.0106258,0.0529668829178592,-0.1003817677558867,-0.0384985174224806,0.2718876020627736,0.4424663211874768,9.90679459679709
1520530966.0156388,0.0579792595640079,-0.1123353054368752,-0.0353524476347854,0.2706850343498195,0.4772414871264147,9.906772391015275
1520530966.0206578,0.0645014521162782,-0.1231241711375777,-0.0316591940536772,0.2779004406275434,0.4904314698241687,9.89739214631122
1520530966.0256715,0.0675099068185478,-0.1298313896784243,-0.0292810126319425,0.2995466594607143,0.5264039966471922,9.908767814660248
1520530966.0306888,0.075552296530931,-0.1324652684680826,-0.0239050376263864,0.3416365294141027,0.5264007185484313,9.871169531150317
1520530966.0357037,0.080579715798122,-0.134809672628016,-0.0182506929603636,0.3368262585622869,0.5000200038732066,9.83637775821294
1520530966.0407195,0.0866169486267556,-0.1342420229860572,-0.0117643466466266,0.35606734196955,0.5156073308181404,9.841985995670967
1520530966.0457346,0.0876286439575077,-0.1336777993170677,-0.0047275740756607,0.3079646334513921,0.52640334102744,9.826173658515703
1520530966.0507507,0.093417134080719,-0.1296063494924578,-0.0009195429739496,0.2911286854700368,0.5551840224288532,9.798418010262422
1520530966.0557668,0.0969406416129722,-0.125524859301706,-0.001165499801315,0.2766978729145894,0.5072195294119135,9.750957342386542
1520530966.0607817,0.1007224380588251,-0.1182467820280044,0.0018590813372683,0.2670773312109575,0.4460641170975739,9.76970492240719
1520530966.0657966,0.1055074029573101,-0.1135958706952467,0.0067556090862888,0.2442285446648326,0.3933037180067348,9.78857307267378
1520530966.0708148,0.1085321822745863,-0.107478527879867,0.0078788767821392,0.2261900289705234,0.3609283314740562,9.818995963489613
1520530966.0758295,0.1110503690567288,-0.1010554288269217,0.0035943830918172,0.1756821850264573,0.2997761035985128,9.8346550835661
1520530966.0808458,0.1120614685442665,-0.0934644686737837,-0.0017606015012434,0.1420102890637467,0.2817916197263284,9.84894609268541
1520530966.0858607,0.1150805828929582,-0.0876210280400696,-0.0071326583923321,0.1552385339062403,0.2650026235389376,9.859293003402186
1520530966.0908768,0.1140797980761419,-0.0803185979032189,-0.0138388617640379,0.1660616433228259,0.2602052189056048,9.913813101099649
1520530966.0958917,0.1130779586715676,-0.0733053670004577,-0.021358925908757,0.1708719141746417,0.2398194570677276,9.925407599183378
1520530966.1009088,0.1143388201945849,-0.0657092093743034,-0.0286081984963976,0.1323897473601152,0.2638052626548521,9.929245206066684
1520530966.1059237,0.1128355239635168,-0.0589926589273931,-0.0342357310085751,0.1335923150730691,0.249415483913933,9.89322107050046
1520530966.1109395,0.1080687341237785,-0.0484835620991746,-0.0419926631764106,0.1456179922026086,0.2817913387464346,9.930261054311469
1520530966.1159537,0.1070718618721246,-0.0394379238160413,-0.0467917067649502,0.1480231276285166,0.294981696084047,9.898846894702952
1520530966.1209717,0.1055709845345728,-0.0312659075948021,-0.0518670320587773,0.1396051536378391,0.3117703176315793,9.961668232876274
1520530966.1259856,0.103316030357643,-0.0248497782146234,-0.0542488367356355,0.2081515132762141,0.3513366129862222,9.955151736693644
1520530966.1310017,0.0967854324288785,-0.0210577833242893,-0.0566427148846676,0.2382157061000629,0.3789145012256034,9.960642935251338
1520530966.1360178,0.0932721728525976,-0.0187339129320722,-0.0544540289091826,0.2502413832296024,0.4280783219858851,10.006963699946605
1520530966.1410336,0.0882449182089949,-0.0204878313620022,-0.0531053034761075,0.2646721957850499,0.4448651639940901,10.021914739924842
1520530966.1460478,0.0829706732633918,-0.0202072555738984,-0.0498467284512854,0.2550516540814183,0.4784418451293673,10.066137109137586
1520530966.1510646,0.0784485174832765,-0.0225546726133479,-0.0444451941968537,0.3175851751550236,0.5168094683604203,10.094544626202907
1520530966.1560807,0.0726702125334197,-0.0272453130459338,-0.0347303766741224,0.2730901697757275,0.5671768315624508,10.168143670158
1520530966.1610968,0.0678991218993765,-0.0322349569253918,-0.0220436442748724,0.2959389563218526,0.5887595796445553,10.215548128102393
1520530966.1661108,0.0601176320111361,-0.0351941033220457,-0.0063597447442858,0.3007492271736685,0.5887592050046968,10.20969058810559
1520530966.1711318,0.0535902604967844,-0.0399010646047484,0.0093084826580865,0.2983440917477604,0.625932745450425,10.21200203661014
1520530966.1761448,0.0480618390840331,-0.048391988764753,0.0235932135788428,0.3741058576638594,0.5803595087829665,10.22757906830584
1520530966.1811588,0.0410277730620983,-0.0580614250953319,0.0424711327283097,0.3248005814327473,0.5815624892649277,10.302435019350092
1520530966.1861758,0.0352506010796626,-0.0659755061048348,0.0589251437101663,0.2730901697757275,0.601951903841424,10.315702041505588
1520530966.1911907,0.0309793755601486,-0.0747609646697629,0.0745580474087626,0.2310002998223392,0.6019551819401849,10.317273862434726
1520530966.1962056,0.022431808473136,-0.0844120525258289,0.0864045736044254,0.2297977321093853,0.5791716075553051,10.33938852006706
1520530966.201223,0.0143903203898367,-0.0893913214302439,0.0947686390717829,0.1768847527394113,0.5935654136747016,10.389861700510242
1520530966.2062387,0.0093635832097853,-0.0946593365333159,0.1025837889827724,0.1444154244896547,0.59116966164692,10.38785578780381
1520530966.2112527,0.0033282282183305,-0.0990382948242521,0.1047260112288502,0.1239717733694376,0.573184147515125,10.403180185256652
1520530966.2162678,-0.0024542009743707,-0.1025444579399035,0.1074155277993878,0.0722613617124177,0.5396122430380422,10.482742033068872
1520530966.2212846,-0.0102417870508216,-0.1028490926239379,0.1112154156781064,0.040994601175615,0.555203503701489,10.506274042210093
1520530966.2263007,-0.0137455905949814,-0.0947026307033376,0.1153423846310919,-0.0263491907498063,0.5456156252722033,10.486020288908016
1520530966.2313168,-0.0185134507510018,-0.0903366471735074,0.1164667822364957,-0.1093263629436287,0.558812632467302,10.504247234382971
1520530966.2363317,-0.0247879551856078,-0.0833407808895455,0.1146379830944002,-0.1393905557674777,0.5504209910025267,10.52546663734432
1520530966.2413478,-0.0298086940862882,-0.0786769554083539,0.1133301574452739,-0.1249597432120301,0.538428462848823,10.523013582151265
1520530966.2463627,-0.0355842978180666,-0.0748883073067338,0.112287608605934,-0.1502136651840633,0.5132484808164091,10.55814826308703
1520530966.2513795,-0.0416161204777604,-0.0719615279143813,0.1066395770036156,-0.1911009674244974,0.5048576822913152,10.565527284105588
1520530966.2563946,-0.0456434096218364,-0.0754538900820205,0.1044560003850319,-0.2103420508317608,0.4449021596801052,10.615745222002312
1520530966.2614107,-0.050423619045083,-0.0751447085711887,0.0971623520231633,-0.2512293530721949,0.4161259739569926,10.597576954795294
1520530966.266425,-0.0584715051703311,-0.0754195760369847,0.0898703248932027,-0.2307857019519781,0.4437046114760904,10.586891778445333
1520530966.271443,-0.0642595914673547,-0.0762726843021522,0.0812169216036749,-0.2440139467944715,0.5036626629063445,10.543962740797427
1520530966.2764578,-0.0690372878888977,-0.0721667627636993,0.0707056226000162,-0.2680653010535503,0.5276473445738938,10.540687023278304
1520530966.2814736,-0.0735580165806367,-0.0663233620719644,0.0642653838234621,-0.2680653010535503,0.5336430466909583,10.527897593085644
1520530966.2864895,-0.078582483762236,-0.0601836747465454,0.0559344803074517,-0.2849012490349056,0.5504323238582427,10.548963684302064
1520530966.2915046,-0.0856206856919295,-0.0566679642421636,0.0478578487057267,-0.2812935458960437,0.5840079747339093,10.521004372732532
1520530966.2965198,-0.0893919165995475,-0.053736656594597,0.0408528871144604,-0.2656601656276425,0.6259766719738201,10.494081969178213
1520530966.3015368,-0.0954182428463763,-0.0479011309467902,0.0371209076365466,-0.3053449001551229,0.651161711644322,10.556037309489652
1520530966.3065517,-0.1031988740960166,-0.0417894785818385,0.0388053362248663,-0.253634488498103,0.6631490884999731,10.570630170075672
1520530966.3115678,-0.1082247565695988,-0.0394501734393798,0.0350448128301521,-0.2764832750442281,0.6919302382012094,10.566175926188905
1520530966.316583,-0.1112352381355902,-0.0353705146616439,0.0345404449119398,-0.2668627333405964,0.7147131569663372,10.614870114368951
1520530966.3215988,-0.1152485000565502,-0.0312992624478206,0.0370139487417262,-0.2127471862576686,0.7302977677722977,10.594571738197798
1520530966.3266146,-0.1255465653543134,-0.0292716201757252,0.040024650847931,-0.2380011082297015,0.7338971559017928,10.59713832427344
1520530966.3316298,-0.1333366095141121,-0.0292754007285852,0.0403096651652432,-0.2343934050908396,0.7374942961921377,10.648234035072054
1520530966.3366468,-0.1378582360342829,-0.0307464788929526,0.0449062309879,-0.2031266445540369,0.691924524943369,10.630541979183173
1520530966.3416617,-0.1471616205677023,-0.0362937120772378,0.047586720087069,-0.1862906965726818,0.6559490010014786,10.590900294127245
1520530966.3466768,-0.155960251213335,-0.0400917127556145,0.0500090683556517,-0.2115446185447147,0.6295698785456519,10.563280370874429
1520530966.3516936,-0.1670192540690995,-0.0438949701202732,0.0540588925090837,-0.2452165145074254,0.560022356466714,10.556703070405533
1520530966.3567097,-0.1770775465555796,-0.0500245392947015,0.0564657897115462,-0.3366116606919256,0.5036698747236183,10.546026174096472
1520530966.3617246,-0.1851236410875743,-0.0535250326306178,0.0567245937284147,-0.3678784212287285,0.4245290419374484,10.534786242411842
1520530966.3667395,-0.1959352537472816,-0.0576079211699427,0.056442993738846,-0.4087657234691626,0.3921554349440971,10.485243596458655
1520530966.3717558,-0.2069913437072857,-0.0558595754636126,0.0548535926992343,-0.4749069476816301,0.4005545692060399,10.50214920454642
1520530966.3767717,-0.2160411790738197,-0.0573164003442386,0.0535065498309477,-0.4833249216723074,0.3561870291595158,10.444167207782684
1520530966.3817856,-0.2228277411308549,-0.0576068010158178,0.0521641987944576,-0.5013634373666169,0.3453961702482689,10.406002557193096
1520530966.386803,-0.2321269425709429,-0.0587774388421673,0.0527136670060606,-0.548263578171821,0.3178195932483921,10.369297342661453
1520530966.3918188,-0.2389155706815314,-0.059939079371354,0.0502824631300369,-0.5626943907272683,0.2818465044655811,10.336932852797922
1520530966.3968337,-0.2479665939338422,-0.0622700578338586,0.0489287510058215,-0.5386430364681893,0.274649788725812,10.284409289765032
1520530966.4018507,-0.2580272112056513,-0.0675138185293233,0.0470135831297932,-0.5723149324309,0.2818472537452979,10.296351454851663
1520530966.4068658,-0.2685889677216917,-0.0692502353423395,0.041067837285504,-0.5879483126993015,0.287844173441902,10.272092750850351
1520530966.4118817,-0.2753720954872841,-0.0660396510999973,0.0381288878973216,-0.5650995261531764,0.2650587258577301,10.29745973921682
1520530966.4168968,-0.2821625309196502,-0.0698295798233625,0.0378420434207214,-0.5602892553013605,0.1991056279301638,10.24982933052686
1520530966.421913,-0.2929721167156359,-0.0712849085995768,0.0356866299276304,-0.5687072292920381,0.1823183176221358,10.230171189449615
1520530966.4269297,-0.3002537531542613,-0.0660392001636746,0.0343874509585651,-0.6035816929677029,0.1883167358781734,10.195640470763156
1520530966.4319448,-0.3057796458367848,-0.064879470231759,0.0357593406912787,-0.6360510212174595,0.1667347370757858,10.200626131210036
1520530966.4369595,-0.313565557889477,-0.0631407710694041,0.0382220606876582,-0.6552921046247226,0.1667362356352193,10.199651268158638
1520530966.4419758,-0.323107217630402,-0.0587795719191371,0.0404375096188221,-0.6661152140413082,0.1415551296832304,10.213726897241347
1520530966.4469907,-0.3301365516384058,-0.0558786814363246,0.0442604512661322,-0.6396587243563212,0.0839943288401915,10.228633385688802
1520530966.4520078,-0.3359129081042039,-0.0544291222947935,0.0461761225992291,-0.6348484535045056,0.0791973925066815,10.252996265858698
1520530966.4570236,-0.3429410542264308,-0.0506540782301023,0.050005733502468,-0.6408612920692751,0.0504184906445956,10.190327081754988
1520530966.4620388,-0.3497255541620437,-0.0515367175601489,0.0521760329420748,-0.6324433180785975,0.0240367457097603,10.196081591594591
1520530966.4670537,-0.3542502542694321,-0.052997597689567,0.0529849562221143,-0.6180125055231502,0.0204382005199466,10.144810304949583
1520530966.4720688,-0.3590281938257054,-0.0576718188164945,0.0567458971419333,-0.6288356149397356,0.0420235710810596,10.136759594671394
1520530966.4770846,-0.3582840199665989,-0.064664023673831,0.056420597028788,-0.6601023754765385,0.0180431977718816,10.16614091177895
1520530966.4821017,-0.3585435477522001,-0.0713688799813804,0.0574521163735437,-0.6384561566433675,0.0336303373968863,10.15313143585662
1520530966.4871178,-0.3598045778309368,-0.076330193533746,0.0601221164986496,-0.5987714221158869,0.0312289657712289,10.146936787901955
1520530966.492133,-0.3575446525689555,-0.0792504370174778,0.0628011440951242,-0.5771252032827157,0.0072444714236088,10.136290188083306
1520530966.4971478,-0.3547750101983983,-0.0798525191310037,0.070366849053755,-0.6023791252547488,-0.0215329318790436,10.093564732104142
1520530966.5021648,-0.352260583154223,-0.0836613863624286,0.0784496585890541,-0.5831380418474856,-0.0143395878979998,10.103829730753796
1520530966.5071795,-0.3487406118858619,-0.0883491123710401,0.0884177532466478,-0.5470610104588669,-0.047918329552498,10.069809145887644
1520530966.5121958,-0.3424536680079734,-0.0904103808987859,0.0973185381324383,-0.5097814113572947,-0.062310918092355,10.086892480522712
1520530966.5172117,-0.3379271802394626,-0.0936386051555628,0.106484243635791,-0.521807088486834,-0.0563142793756447,10.084679396482288
1520530966.5222268,-0.3303883212713887,-0.1003673612908289,0.1175114927074813,-0.5157942499220642,-0.1198691901163497,10.047494239645376
1520530966.527243,-0.3236038801862625,-0.1050457946356527,0.1244975151076343,-0.4977557342277552,-0.1690353523757465,10.067123053929944
1520530966.5322578,-0.3135520721171354,-0.1100172463099987,0.1325574306035555,-0.5013634373666169,-0.1714333522426784,10.03345833310537
1520530966.5372748,-0.3052606691711613,-0.113521538070655,0.1365735401504053,-0.5145916822091103,-0.1474495135148105,10.083535891972485
1520530966.5422895,-0.2977241271241542,-0.1164375286948081,0.1384311288704784,-0.5554789844495447,-0.177424839661336,10.09790882482285
1520530966.5473046,-0.2874217964212656,-0.1161377369038994,0.1367909409262565,-0.5735175001438542,-0.2205924900047303,10.152747262730532
1520530966.5523217,-0.2801345184753632,-0.1134993091883341,0.1319275875929523,-0.5338327656163735,-0.2373835467113423,10.165160950114371
1520530966.5573378,-0.2725920212709477,-0.106190617838795,0.1241233320464166,-0.5290224947645579,-0.2613667298194579,10.256946889056968
1520530966.562353,-0.2647963826579655,-0.0994733382611137,0.1195607143568052,-0.5145916822091103,-0.2925455047477678,10.28937686191848
1520530966.5673687,-0.2587598358486028,-0.0927567478722241,0.1150013637300931,-0.4640838382650445,-0.3081382639706481,10.313305473997424
1520530966.5723836,-0.2524804347764773,-0.091280609932658,0.1087782554691297,-0.4424376194318733,-0.2565769116432574,10.34674667606637
1520530966.5773995,-0.2472048647149475,-0.0886385992750194,0.1022953605465887,-0.3847143692100838,-0.2218063350425847,10.305475884122
1520530966.5824158,-0.2414209418506,-0.0848446937874141,0.1009607965408668,-0.2716730041924122,-0.1978323306109992,10.315973661575129
1520530966.5874307,-0.2381525634008036,-0.0845556714934183,0.1023096817031553,-0.1959112382763135,-0.1966390907653558,10.321045793452118
1520530966.5924468,-0.2381505012793813,-0.0851479101518856,0.1058223321792522,-0.1694547485913264,-0.2134291172123572,10.346371819953056
1520530966.5974617,-0.2341272579984867,-0.0839837104783183,0.1069059405317543,-0.1574290714617869,-0.2362137218568477,10.386952025232208
1520530966.6024787,-0.2323647789575183,-0.0816526735022513,0.107191004047233,-0.1345802849156618,-0.2158301141981561,10.327440408727686
1520530966.6074948,-0.2293447041292559,-0.0778613078877401,0.1064026657892981,-0.1490110974711094,-0.2410109391702513,10.37292903974359
1520530966.6125088,-0.2295915963909378,-0.0720220609003391,0.1021188598843415,-0.1622393423136028,-0.2553995939915953,10.384693266977466
1520530966.6175258,-0.2320996919764342,-0.0650145197483026,0.0964954173505589,-0.1610367746006487,-0.2841790578134687,10.354493883253337
1520530966.6225417,-0.2298209682875743,-0.0495571419426838,0.091739214236303,-0.1718598840172343,-0.2997670403781546,10.319750111544844
1520530966.6275558,-0.2285506899222674,-0.0343820728826431,0.0834655582831067,-0.1610367746006487,-0.3021661641646619,10.331268544257698
1520530966.632573,-0.2292831887370254,-0.0127936897111533,0.0738918145133858,-0.1766701548690501,-0.3009658061617092,10.307014517613393
1520530966.6375887,-0.2277594905707209,0.0073503118208321,0.0599740204732554,-0.177872722582004,-0.2625932189525327,10.31512381149336
1520530966.6426036,-0.2252293660803231,0.0280760193674344,0.0465998975024613,-0.1309725817767999,-0.2637960121145648,10.30537133199823
1520530966.6476188,-0.2237001244470601,0.0522994042815203,0.0327132266566651,-0.0732493315550104,-0.3117661247293802,10.318801990310387
1520530966.6526358,-0.2226802118247094,0.0715690553205437,0.0187896968071485,-0.0852750086845499,-0.3261548732106888,10.264312307097349
1520530966.6576507,-0.2186408359458351,0.0958028943939279,0.001381262081923,-0.0299568938886682,-0.3057737943710412,10.303266890177945
1520530966.6626658,-0.2161111034852318,0.117700695929312,-0.0144188816107437,-0.0107158104814049,-0.2841907653090431,10.294923553489092
1520530966.6676826,-0.2148464351701535,0.1366994569664828,-0.0359203863540757,-0.0215389198979905,-0.2793933606757103,10.331050684220724
1520530966.6726987,-0.213325195087197,0.1571443126296426,-0.0533530539556126,0.0674510908606018,-0.2949891170174576,10.306956832371045
1520530966.6777136,-0.2128101147322961,0.1781773709737639,-0.0729437756606549,0.113148663952852,-0.3633436802306459,10.285660101388132
1520530966.6827295,-0.2092831453836827,0.1960041956909602,-0.0917529142956548,0.1396051536378391,-0.3501551960923253,10.22960681761249
1520530966.6877446,-0.2080227973920857,0.2085779285063312,-0.107892408997773,0.2273925966834773,-0.3297766460717219,10.24035390926832
1520530966.6927607,-0.2080218015233356,0.2196971601318007,-0.1251228690936875,0.2658747634980039,-0.3321779240374148,10.178388056567565
1520530966.6977758,-0.207524366967237,0.2264465491900279,-0.1426581548116898,0.3632827482472739,-0.3933416720886035,10.142635264672196
1520530966.7027917,-0.2077805309767965,0.2296822746395559,-0.1539961617778648,0.4222085661820174,-0.4233247720121903,10.153712389930742
1520530966.7078087,-0.2067839879723193,0.2288332815361494,-0.1632032583875207,0.4210059984690635,-0.4365152230097673,10.116548351183903
1520530966.7128236,-0.2062962957050348,0.2212727777900416,-0.1689434558660385,0.5208191186442414,-0.396951362814204,10.074863204907611
1520530966.7178397,-0.2068141084721045,0.2128348129156171,-0.1736062721237948,0.5821500720048929,-0.3441939608422319,10.102106251004146
1520530966.7228558,-0.2088311442136227,0.2072948055284475,-0.1725625933749015,0.6458861607914522,-0.247068550523913,10.074661855587292
1520530966.7278717,-0.2118496430584447,0.2017420209909585,-0.166917767502602,0.6374681868007745,-0.1655263461120857,10.101393586860336
1520530966.7328858,-0.2146133264709414,0.1976411585280009,-0.1593684716557171,0.6302527805230509,-0.118759307639196,10.116526084373003
1520530966.7379017,-0.2201389643538203,0.1955803616072707,-0.1523395720474832,0.7048119787261959,-0.0672020763502475,10.147127976050758
1520530966.7429187,-0.2274142458724596,0.1964145099939825,-0.1385215271257233,0.7709532029386632,-0.087592614846319,10.20809770628817
1520530966.747933,-0.2354507746671005,0.1905406914377903,-0.12258884582906,0.802219963475466,-0.1091795776268301,10.225246582240867
1520530966.7529497,-0.2432384274583003,0.1817480270467362,-0.1047850408374554,0.8334867240122688,-0.1235716978668641,10.207524123531494
1520530966.7579658,-0.2512765910868684,0.1720745547386515,-0.0845525253153971,0.9020330836506438,-0.1367675811423876,10.2103562299096
1520530966.7629807,-0.2618349604970387,0.1562773806466603,-0.0630092978726208,0.9633640370112954,-0.2171147661692443,10.150568276096411
1520530966.7679968,-0.2723983833040547,0.1390334819531539,-0.0452648283990096,0.9609589015853874,-0.2902621446775003,10.137879432407086
1520530966.7730126,-0.2837181214918524,0.1203338221186936,-0.0280711659739349,0.9429203858910782,-0.3250358120570046,10.095089592785612
1520530966.7780287,-0.2917711473893503,0.1028068077639893,-0.0130390457773589,0.8851971356692885,-0.4173651289814951,10.022526405500496
1520530966.7830436,-0.3028425662270899,0.0864587186733124,-0.0034033504783134,0.8214610468827291,-0.4845120287144924,9.96626720273233
1520530966.7880588,-0.3106435287650864,0.0756613272824628,0.0013986899128649,0.7986122603366042,-0.6020260106696265,9.937550595195422
1520530966.7930758,-0.3227146738997533,0.0683683460788008,0.0027182449766548,0.7420915778277684,-0.6643769106687598,9.942810114305315
1520530966.7980907,-0.3310188417355345,0.0602070587127921,0.0024008545600387,0.6987991401614262,-0.6871572069548788,9.89793009956786
1520530966.8031058,-0.3347902647916582,0.0569923393376993,0.0053594063256166,0.6951914370225643,-0.6787629430110949,9.90028131727083
1520530966.8081226,-0.3408280347444984,0.052621393788509,0.0045256237167808,0.7060145464391498,-0.7207337007702268,9.871163299781252
1520530966.8131378,-0.3481170650938227,0.0514522720375608,0.004800812246312,0.7709532029386632,-0.6859636861293417,9.843768004948952
1520530966.8181536,-0.350625086231787,0.0534836948625161,0.0075265000352046,0.7432941455407224,-0.6619787234818986,9.809149515835191
1520530966.8231688,-0.3503735678607544,0.05348306488699,0.0077965792078345,0.7444967132536763,-0.6763685022228176,9.792881827490694
1520530966.8281848,-0.3521315580225221,0.0549422120589339,0.0067287781136768,0.801017395762512,-0.6835677467816306,9.710988629078818
1520530966.8332007,-0.3526297177877232,0.0560980836531406,0.0102557005481738,0.7685480675127554,-0.6835652179625866,9.754303991908436
1520530966.8382158,-0.3473540262245675,0.0549346131103444,0.0102370070182377,0.7541172549573079,-0.6847632344664245,9.7544456219248
1520530966.8432317,-0.341823691716937,0.0563944301997937,0.0099673086369153,0.725255629846413,-0.6787652845102097,9.71753209004777
1520530966.8482468,-0.3345317053498898,0.0628223136323021,0.0045917636208333,0.6651272441987155,-0.735120201412385,9.747225900669298
1520530966.8532648,-0.3247241314463289,0.0724622388689917,-0.0029283618567662,0.6110116971157877,-0.7686919185695387,9.71989391480621
1520530966.8582788,-0.3181791690515307,0.0873552752787929,-0.0139195010429821,0.5508833114680901,-0.8130554312375851,9.740278880401489
1520530966.8632936,-0.3061011827274169,0.1077969817640253,-0.0286663120629021,0.5713269625883074,-0.8502303765827821,9.779629038402431
1520530966.8683107,-0.2952818899003175,0.1267820017661526,-0.0436924507889147,0.5148062800794716,-0.8394337107537306,9.8034115310856
1520530966.8733268,-0.2819561558508253,0.1440335393502277,-0.0638769672816215,0.5208191186442414,-0.816650511008709,9.803330788357725
1520530966.8783426,-0.2676198673022642,0.16214578414806,-0.0789163093893614,0.6338604836619128,-0.7471091704874342,9.7975141155603
1520530966.8833568,-0.2510229909337583,0.1787990786850317,-0.0928887838494861,0.7144325204298275,-0.6727687394534643,9.798981665654695
1520530966.888373,-0.2391969738609584,0.1948524364597017,-0.101175372924149,0.7396864424018604,-0.5636489277821494,9.812575177048656
1520530966.8933887,-0.2273781350890443,0.2030267571003788,-0.1051932509677512,0.7541172549573079,-0.513286153918384,9.791467012947107
1520530966.8984036,-0.2130471509363213,0.207985177599166,-0.1049115158480522,0.7974096926236501,-0.4988998405961549,9.785220879073671
1520530966.9034207,-0.2012325893659258,0.2094416286286148,-0.1030285151439477,0.8298790208734068,-0.4809152630640059,9.852291651806125
1520530966.9084368,-0.1909347083524064,0.2041949163660093,-0.1009232991664346,0.8888048388081504,-0.4845172736725097,9.842424460425232
1520530966.9134507,-0.1818956149440887,0.1951502433670064,-0.0953275530348735,0.9549460630206176,-0.5264923397900129,9.885983079455851
1520530966.9184668,-0.1708363690850728,0.1913425383307952,-0.0864489744030956,0.9561486307335716,-0.5636657865757765,9.8941426315957
1520530966.9234838,-0.1620403102916305,0.1857827263066803,-0.0764973501901284,0.9104510576413216,-0.6032338614697466,9.94459820196656
1520530966.9284997,-0.1544924814294173,0.1837073814352868,-0.0621879810026698,0.9080459222154136,-0.6272164826180748,9.981833605399418
1520530966.9335148,-0.1474502806906361,0.1813491962983307,-0.051126452204793,0.8322841562993147,-0.667981356436343,9.98725935730564
1520530966.9385295,-0.1446866639928883,0.1769620290542685,-0.0446718309387918,0.8238661823086371,-0.6895652284380227,9.988524484761337
1520530966.9435458,-0.1426700360096889,0.1778202163659211,-0.0384463398633052,0.8322841562993147,-0.7399297818411152,10.030328843966728
1520530966.9485617,-0.1383898759852151,0.1780877795500493,-0.028982944717065,0.8346892917252227,-0.8430560455745515,10.071081035427014
1520530966.9535778,-0.1358738572290753,0.1783714074599454,-0.0257388381136538,0.6903811661707485,-0.9185906530538108,10.09464004570106
1520530966.9585938,-0.1333736220316044,0.1710972484369214,-0.0293161791258227,0.604998858551018,-0.9269779861602144,10.150100055930372
1520530966.9636078,-0.1316277184731561,0.1652877294254828,-0.0358570093965433,0.6218348065323732,-0.917386174012416,10.140629678792656
1520530966.9686248,-0.1323884638826518,0.1656028568113882,-0.0447814007061604,0.5629089885976297,-0.94616095483606,10.21444635981534
1520530966.973641,-0.1321384744409659,0.1685342828854862,-0.0512527380779654,0.5448704729033204,-0.9737397796750868,10.246026717228393
1520530966.9786558,-0.1336461223210847,0.1735090820482494,-0.0593285221651115,0.4703112747001755,-0.9149760920100511,10.197885087026382
1520530966.9836717,-0.1344068206764866,0.1749948465608011,-0.0701378424047989,0.4703112747001755,-0.8849975814247295,10.167640110735444
1520530966.9886878,-0.1376756303459092,0.1776342381610904,-0.0768754146320162,0.5400602020515046,-0.8430330988832255,10.161109570817883
1520530966.993703,-0.1399407854247177,0.1788156440849463,-0.0830848773870643,0.604998858551018,-0.8070639438189273,10.080254484752258
1520530966.9987187,-0.1409449222211826,0.1805679280129438,-0.0846929473575289,0.5232242540701493,-0.7722825026623616,10.078692229842565
1520530967.0037348,-0.145476173329194,0.1759091023939819,-0.0866139369749072,0.5075908738017479,-0.7147225447590044,10.098544714513848
1520530967.0087495,-0.1500088710547578,0.1721331715297124,-0.0917748080871714,0.5063883060887939,-0.7015319064414982,10.074138533799928
1520530967.0137646,-0.1555446549211596,0.1689352453114551,-0.0953060907603239,0.5496807437551363,-0.7159249632811782,10.05746116848051
1520530967.0187826,-0.1600694373403422,0.1695235264769686,-0.0979987025298332,0.6134168325416955,-0.7267221910700172,10.10333708271193
1520530967.0237978,-0.1681176841698154,0.1657374760623019,-0.0999064887654842,0.5508833114680901,-0.7483018483732902,10.106291081661029
1520530967.0288138,-0.1766716492987768,0.1607907896448549,-0.1037160551671396,0.5015780352369782,-0.7806747997468892,10.055668227148605
1520530967.0338287,-0.1827069493718759,0.1605094255127143,-0.1083063571242584,0.4246137016079253,-0.7986559118603482,10.03202986781003
1520530967.0388448,-0.1890000090986301,0.1579078131727061,-0.1169721654791011,0.3524596388306883,-0.8598064538565291,10.115304028246898
1520530967.043861,-0.196038167906361,0.1611306822876593,-0.1245099283743332,0.3067620657384381,-0.9125650734080406,10.096043824096355
1520530967.0488758,-0.2043291670261474,0.1678533156077579,-0.1333714101089997,0.3091672011643459,-0.92935322665575,10.091388208916122
1520530967.0538917,-0.2103524039572344,0.1795325572849141,-0.1430109375905489,0.2718876020627736,-0.9137614976924802,10.09057372030087
1520530967.0589068,-0.2158700558868521,0.1917874806170615,-0.1499414933890092,0.282710711479359,-0.8765889875063626,10.08578354945942
1520530967.0639217,-0.2226481145270747,0.2022987035252177,-0.158776875354279,0.3488519356918264,-0.8286285218679004,10.090903717557085
1520530967.0689387,-0.2296725518975589,0.2136715982315583,-0.1630058411100278,0.3704981545249975,-0.8142405226663088,10.06859825934025
1520530967.0739548,-0.2389649709986868,0.2200886130119088,-0.1667273070147953,0.3861315347933989,-0.8106443189756098,10.063794009772083
1520530967.0789697,-0.2444897071210029,0.2268057734633557,-0.1731590096423353,0.3993597796358923,-0.8190393321991105,10.032295552762225
1520530967.0839846,-0.2505180171095909,0.2297208979586232,-0.1744783069102339,0.3440416648400106,-0.8094419004534361,10.027013910872745
1520530967.0890017,-0.2578086665643181,0.2306060365200814,-0.1795984747015602,0.2923312531829907,-0.8598017708582992,10.022917764730682
1520530967.0940158,-0.2683706347580405,0.2317973051702824,-0.1906623617148769,0.2622670603591419,-0.9209555909532408,10.067431497703398
1520530967.0990326,-0.2766710820456861,0.2356243039941472,-0.2063097217001701,0.2526465186555102,-0.9725178798802774,10.078034715330515
1520530967.1040478,-0.2842164880822519,0.2406185931559443,-0.2224906813058415,0.1359974504989771,-1.060046045772851,10.074606891752214
1520530967.1090636,-0.2965430326960655,0.2432908619101234,-0.2427387462903529,0.0073227052129043,-1.1259887474443475,10.110787965075133
1520530967.1140797,-0.3061074424873844,0.2456786565965105,-0.2651585354833682,-0.0443877064441156,-1.1319804221829342,10.100837833609738
1520530967.1190968,-0.3159250407413635,0.2474872259281092,-0.2889350336032376,-0.0696416284161485,-1.1907363360709085,10.0813844901962
1520530967.1241117,-0.3244822322847377,0.2510394956836991,-0.3108067055562975,-0.0985032535270433,-1.23750056474486,10.022441674115992
1520530967.1291275,-0.3330415330036279,0.2540133669711099,-0.334306099055384,-0.1670496131654186,-1.2338978048566396,9.95918743683249
1520530967.1341426,-0.3408459297015883,0.2561060957325891,-0.3551081030212007,-0.1646444777395106,-1.2183091666722012,9.908014491323751
1520530967.1391618,-0.3509126352973458,0.2564438037818933,-0.3737548778222234,-0.1658470454524645,-1.2566815665614486,9.846469985662551
1520530967.1441748,-0.3567072216087675,0.255026865669903,-0.3894469205758024,-0.1850881288597279,-1.2626757701190796,9.807150218818173
1520530967.1491897,-0.3612396919281252,0.2541771634067151,-0.3991848410652918,-0.1562265037488328,-1.207517558481238,9.702222551978734
1520530967.1542048,-0.3670301971186651,0.2518685893672187,-0.4083904515731699,-0.1502136651840633,-1.1727429545020875,9.63937434233053
1520530967.1592216,-0.3755850796052345,0.248681136579546,-0.4162448679014862,-0.2163548893965305,-1.1295687479611716,9.579544538601592
1520530967.1642358,-0.3778522184258021,0.2469421413508629,-0.4200416484465191,-0.2007215091281293,-1.1103837187661052,9.513131458049568
1520530967.1692526,-0.3838900236363427,0.2457909942232505,-0.4262618950349741,-0.1466059620452013,-1.1403664440498336,9.384798129027525
1520530967.1742678,-0.3876646457134409,0.2449284755674671,-0.4311313895680552,-0.1454033943322474,-1.1967261376102032,9.367409223602545
1520530967.1792836,-0.3909357919645855,0.2440632400984959,-0.4349196339640741,-0.1478085297581552,-1.2470898480736148,9.38723819318561
1520530967.1842997,-0.3947133543308824,0.243795873825451,-0.444383962556857,-0.1309725817767999,-1.2710739677813765,9.332476943332336
1520530967.1893158,-0.3992491256436639,0.2400301409961307,-0.4533324762117385,-0.1478085297581552,-1.3502159244871217,9.307150823519963
1520530967.1943307,-0.4012788987500716,0.2330689040948192,-0.4655566617885535,-0.1009083889529511,-1.4125748792432102,9.30675513196032
1520530967.1993468,-0.4010518162495847,0.2246611002607998,-0.4813132599480743,-0.0347671647404839,-1.4245714347753915,9.249177993492635
1520530967.2043626,-0.4030858978830806,0.2156652706859128,-0.495446828393365,-0.0227414876109444,-1.4581483032305975,9.221202229526105
1520530967.2093778,-0.3995988383771604,0.2020130968515955,-0.5109789635950844,0.0518177105922004,-1.4557558293015769,9.167015555455096
1520530967.214393,-0.3973707389642926,0.1857343278385947,-0.5251760434687274,0.0842870388419572,-1.4137884433011705,9.184090751371134
1520530967.2194097,-0.3901133267185308,0.169153760080982,-0.5347854006627852,0.0794767679901413,-1.3070645709775666,9.206114235533782
1520530967.2244267,-0.384105547899588,0.1566477128413545,-0.5427380256707451,0.0145381114906282,-1.2530981942858994,9.199720824589251
1520530967.2294407,-0.3753221754848107,0.1523007869458186,-0.5503629923501195,-0.0371723001663919,-1.2650855711415503,9.221154426584022
1520530967.2344568,-0.3622599916227937,0.1529090717584704,-0.5579581008748435,-0.1093263629436287,-1.2770713557778033,9.213733415682562
1520530967.2394726,-0.3486843897647202,0.1605064115508281,-0.5638775134232727,-0.1273648786379382,-1.2578837041037287,9.259213896315508
