Time,angular_velocity.x,angular_velocity.y,angular_velocity.z,linear_acceleration.x,linear_acceleration.y,linear_acceleration.z
1520531467.566265,-0.2143494011655061,0.059738457650091,0.0849691160226133,0.089097309693773,-0.1379034074297342,9.924247596975574
1520531467.571282,-0.2221319220487182,0.065270983115796,0.0852963689608076,0.0734639294253716,-0.1438978919672588,9.789596910715948
1520531467.5762973,-0.2291517059164134,0.076335739380284,0.0872877357254776,0.0253612209072136,-0.1259070392174819,9.695913912592504
1520531467.5813131,-0.2323962874608414,0.0917734688183585,0.0890349020248203,-0.0179312167591285,-0.1055182802607377,9.610316763244391
1520531467.5863285,-0.2326285761853692,0.1072233061889502,0.0867182792063887,-0.0960981181011353,-0.1223001582908192,9.454204528842013
1520531467.591344,-0.2288385899728351,0.1229624612201627,0.0857491413804317,-0.2380011082297015,-0.1162934042979327,9.405607688772644
1520531467.5963593,-0.2280586462424043,0.1427798181669755,0.0848167274280647,-0.2428113790815174,-0.1630595061711763,9.3638629308772
1520531467.601375,-0.2267816835784556,0.1617377870643491,0.0784657928552018,-0.3197757127105702,-0.2074217075997183,9.45414040451559
1520531467.606392,-0.2199872375406086,0.1710756767033641,0.0744661416182644,-0.3305988221271558,-0.2433950773624232,9.55538735421798
1520531467.6114063,-0.2164712924747736,0.1713771807810542,0.0712152798269607,-0.2464190822203793,-0.2493973356770092,9.659166802844108
1520531467.6164222,-0.2086950599282778,0.1623531400053092,0.0689675285937427,-0.1742650194431421,-0.2661909212026652,9.79096528098901
1520531467.6214392,-0.2014339625235597,0.1445895517928976,0.065842380560076,-0.0215389198979905,-0.2410208671264984,9.884749986944597
1520531467.6264553,-0.1896550806484323,0.1201142367554149,0.0669864348798247,0.086692174267865,-0.1918645391633843,9.985917256928277
1520531467.6314712,-0.1753663821099561,0.0918453515389312,0.0705318349209467,0.1600488047580559,-0.1618917418359028,10.009579038043633
1520531467.6364863,-0.1613247130633118,0.0673672804459846,0.0730244182107597,0.2261900289705234,-0.1379140846656981,9.94499395567314
1520531467.641502,-0.1412461051775102,0.0484337057531457,0.0733836715957333,0.2466336800907407,-0.1331191151914448,9.866926647424217
1520531467.6465173,-0.1209082321700141,0.0364985571883525,0.071901991033557,0.2995466594607143,-0.1199326915723453,9.722292911886544
1520531467.6515331,-0.0987997452732242,0.0312579291983417,0.0734441792255156,0.3296108522845632,-0.1499135436567819,9.606977267489436
1520531467.6565502,-0.07392217265926,0.0306856356734502,0.0731229815551344,0.3139774720161619,-0.1858865387796283,9.49908512565809
1520531467.6615653,-0.0495439358998805,0.034785495709111,0.069050644153632,0.282710711479359,-0.2182608950526963,9.364612330595495
1520531467.6665802,-0.0276800948591068,0.038010946038544,0.0647057588330129,0.2153669195539378,-0.2818100925355613,9.28397971194026
1520531467.6715963,-0.0048055973468147,0.047365334867176,0.0568885947640938,0.0518177105922004,-0.3645380439958644,9.239166525853696
1520531467.6766112,0.0143044437325574,0.0643117269179252,0.0426431302606641,-0.1177443369343065,-0.4712483356246021,9.188624532063164
1520531467.6816282,0.0309034802628039,0.0841775355657967,0.0259896507799325,-0.3101551710069388,-0.5587706009394064,9.187096270993935
1520531467.6866472,0.0439935304861571,0.1116216057010388,0.0080477761635425,-0.3859169369230377,-0.6738821810092726,9.203053817521608
1520531467.6916602,0.0530548410157507,0.1349927299072595,-0.012893758929754,-0.4159811297468865,-0.8141792690494636,9.284833333419815
1520531467.696674,0.0611009238828312,0.1504938927612019,-0.0330818127456206,-0.3630681503769124,-0.8453610410966403,9.46099459479886
1520531467.7016902,0.0631006941904273,0.1525788063917219,-0.0495732845845992,-0.1959112382763135,-0.8453740598317192,9.601149154370336
1520531467.7067072,0.0645821106746161,0.1409589807245111,-0.0626512113398698,-0.0792621701197799,-0.7998158087585958,9.713859436518971
1520531467.711723,0.0658101544119009,0.1255408597120017,-0.0719699289382764,0.0193483823424438,-0.7182819400836173,9.78254874407619
1520531467.7167363,0.0637633039564669,0.103415972494375,-0.0799809806167703,0.0494125751662926,-0.6019676605116837,9.8239798741102
1520531467.7217543,0.0624758895231259,0.0839072855093992,-0.0855385116341807,0.1804924558782732,-0.4712715632958216,9.896953778051548
1520531467.7267702,0.0659641995659619,0.0617627113816553,-0.0854434543476066,0.2358105706741549,-0.2938030889890881,9.954349480957942
1520531467.7317865,0.0712129970437451,0.0361018160452899,-0.0778030560624123,0.2490388155166485,-0.0971450898089877,10.033054742587206
1520531467.7368023,0.0784759173672861,0.0104293250251053,-0.0655671113330677,0.3079646334513921,0.04195060996864,10.085804173363435
1520531467.7418172,0.0892571859216541,-0.0193401102073591,-0.0463346306304237,0.2863184146182209,0.1007101765952335,10.106876157931822
1520531467.746832,0.1010414073188413,-0.050272504433625,-0.027924546849807,0.2081515132762141,0.0875257198353905,10.122757720736123
1520531467.7518492,0.1120766601918519,-0.0774164667406406,-0.009754708686253,0.0698562262865096,0.0347743121011526,10.122993109197912
1520531467.7568653,0.125626359769693,-0.1010519036987076,0.0043789508297843,-0.1129340660824906,-0.0323633152953496,10.119027041001592
1520531467.7618802,0.1364115213600473,-0.1200044182990126,0.0104369367897226,-0.2897115198867215,-0.1954326448647046,10.142987449564371
1520531467.7668962,0.1481992085057256,-0.1357279994827594,0.0078600411261417,-0.521807088486834,-0.3692899298864041,10.165172526867574
1520531467.7719123,0.1519394564743061,-0.1488009479622883,-0.0063153851487235,-0.6216202086620122,-0.533564394116906,10.301112944717577
1520531467.7769282,0.1529047812692774,-0.165644767530888,-0.0272782249741598,-0.6336458857915517,-0.6330921126605284,10.337353513020354
1520531467.781943,0.1556183775299886,-0.1894767559793186,-0.0499209612853328,-0.645671562921091,-0.7002430397720032,10.365427501483856
1520531467.7869592,0.1525493289881855,-0.215350700596258,-0.0725685245584325,-0.5891508804122554,-0.766200165078047,10.442805322423236
1520531467.7919743,0.1522442578483552,-0.2421006295083888,-0.0941457074598406,-0.4604761351261826,-0.718244569757744,10.440343963861418
1520531467.7969892,0.1506834374328402,-0.2694389187702884,-0.1138311816442026,-0.3354090929789717,-0.6211239360976193,10.379762579848686
1520531467.8020062,0.1503909429664424,-0.2892058170623393,-0.1315673679555634,-0.2596473270628727,-0.5335925857662491,10.205780350349958
1520531467.8070223,0.1533780903037397,-0.3002328133378327,-0.1481607455265587,-0.2043292122669908,-0.4904278388817571,10.041337523996464
1520531467.8120382,0.1571269710550206,-0.3033826624059116,-0.1682125966107252,-0.1201494723602145,-0.4112911271340294,9.91725373450892
1520531467.817052,0.1581208952846926,-0.2983690002722056,-0.1903614345174485,-0.1009083889529511,-0.3825132555315539,9.743878940285455
1520531467.8220682,0.1631480520194559,-0.2840287295453924,-0.2127171471625074,-0.0900852795363658,-0.3441416049220234,9.642629651904567
1520531467.8270853,0.1671744552629722,-0.2670693056193812,-0.2339688015630898,-0.0997058212399972,-0.3837124896149314,9.519574621403992
1520531467.8321002,0.1691929808754844,-0.2463139293100821,-0.2584343728192918,-0.0696416284161485,-0.4196890438164323,9.43448056651283
1520531467.8371172,0.1697152826532338,-0.2176946752213964,-0.281754936848902,-0.1634419100265567,-0.4076903341050653,9.405166124711885
1520531467.8421323,0.1674683262259584,-0.1925723900401161,-0.305367589842144,-0.1658470454524645,-0.3801099170466401,9.363325457670108
1520531467.8471472,0.1654743426515302,-0.1654066725569047,-0.3303178774409965,-0.1237571754990765,-0.3825114759922265,9.376863846824316
1520531467.8521645,0.1607137393075376,-0.1402831866378378,-0.3547375008892289,0.0001072989351806,-0.3381529273023036,9.400019983498774
1520531467.85718,0.152685984589357,-0.1163308893363911,-0.3775366739007652,0.0830844711290033,-0.2901937729033459,9.49678565318978
1520531467.8621953,0.1439073638491659,-0.0920962440470902,-0.3970856729063632,0.0842870388419572,-0.2662110580950531,9.530452736020711
1520531467.86721,0.1338691204579591,-0.0719494871593441,-0.4136874566350252,0.20694894556326,-0.1451074286467418,9.6070043619337
1520531467.8722272,0.1250949689363136,-0.0512420503024058,-0.4219002050364864,0.3296108522845632,-0.0311986417389077,9.6056993589495
1520531467.8772423,0.1160720629128525,-0.0314212488110406,-0.4255198757402842,0.4282214047467871,0.1342750565749716,9.594118879918115
1520531467.8822582,0.1093165113197722,-0.0113256590381346,-0.4226484223665846,0.4955651966722084,0.2757683815796731,9.603784710314756
1520531467.8872745,0.1010667940812204,0.0145780913396159,-0.4126955136536333,0.5172114155053795,0.3800919125372302,9.510500770446832
1520531467.89229,0.0918217727101929,0.0448391040453727,-0.3978375656417308,0.5148062800794716,0.4460448231448672,9.438406941739366
1520531467.8973043,0.0843390931499839,0.0753827208633326,-0.3794635649607019,0.5424653374774125,0.497605707172435,9.340467351699422
1520531467.902321,0.0766101250355694,0.1076658052166945,-0.3578292082937294,0.5111985769406099,0.4880150189442115,9.339618893926282
1520531467.9073362,0.0656119434255447,0.1393699396109034,-0.3380870516661575,0.4799318164038071,0.4256621520858217,9.31093043217887
1520531467.9123533,0.0553638319815482,0.1687454784465976,-0.31917571757858,0.4510701912929122,0.3105469192773363,9.304350746375754
1520531467.9173682,0.0425993018873552,0.1960825263290283,-0.3010869155431601,0.3933469410711226,0.217018461929433,9.380543154569931
1520531467.9223845,0.0240428983647329,0.2184812551156484,-0.2895182728243923,0.333218555423425,0.1102996472439172,9.452123259791836
1520531467.9274,0.0029619883976824,0.2356486464769359,-0.2833958963265086,0.2466336800907407,0.0023837526542097,9.586717819122196
1520531467.9324162,-0.0193818334174144,0.2502025544187605,-0.2808082906267706,0.1913155652948588,-0.0311878708429793,9.713962684226678
1520531467.937431,-0.0447523633731908,0.2598163125514617,-0.2836637946160643,0.1660616433228259,-0.0587661337222188,9.813017621322995
1520531467.9424472,-0.0726399706049961,0.2673937650241029,-0.2881534683452193,0.2009361069984905,-0.0227946371588059,9.87423672408276
1520531467.9474611,-0.0960068452129312,0.2705912953210839,-0.2886267009343835,0.282710711479359,0.0923164746112372,9.948867880702046
1520531467.9524791,-0.1168638600355549,0.2697024140496353,-0.2861597190956816,0.3644853159602277,0.246999220353905,9.892138182299334
1520531467.9574952,-0.1357077242883846,0.2664635765653463,-0.2764095165362936,0.4630958684224517,0.4196677612082617,9.811984193933526
1520531467.9625092,-0.1475087173802076,0.2652548041991219,-0.2620575404010146,0.4895523581074387,0.592341921660494,9.777856123167842
1520531467.9675252,-0.1600609685238355,0.2655004738095335,-0.2468814109816699,0.5003754675240243,0.7038611380982096,9.781128460972443
1520531467.9725423,-0.1703452026791194,0.2674822249243571,-0.2268263174336875,0.4979703320981162,0.7554243636248923,9.746237270870983
1520531467.9775572,-0.1763602186494347,0.2665481623551214,-0.2054486595549072,0.5075908738017479,0.797393529164626,9.777480590309754
1520531467.9825733,-0.1816297003870162,0.2583246829527137,-0.1822341577073719,0.4943626289592545,0.8177799466222554,9.862425975821193
1520531467.9875891,-0.1879039814790259,0.2503921942554323,-0.1590155658814418,0.4498676235799582,0.8093894290770554,9.963973772300776
1520531467.9926045,-0.1951968735387669,0.2337228749346721,-0.1377556209930226,0.4390445141633727,0.7902040252421307,10.038475040306633
1520531467.9976192,-0.2014838685343591,0.2167589227534467,-0.1151470366034922,0.429423972459741,0.7326460341980296,10.117650597928924
1520531468.0026362,-0.205768693989494,0.1960179573966964,-0.0963587286517742,0.4354368110245108,0.6594980000700216,10.228067077991842
1520531468.007651,-0.2100575261179787,0.1711925096403711,-0.0757077226230818,0.382523831654537,0.5839562744334529,10.300708694008913
1520531468.012668,-0.2153542272559783,0.1481317291401959,-0.061264066795175,0.2983440917477604,0.5527851796222398,10.370124944078167
1520531468.0176833,-0.2231622897151975,0.125942660804347,-0.0462679826868237,0.2550516540814183,0.4508616153908713,10.479887251642335
1520531468.022699,-0.2292197362626928,0.1031970076900773,-0.0407487181685339,0.2382157061000629,0.4088930118109251,10.539361390971216
1520531468.0277152,-0.2322635296166606,0.0801662505324895,-0.0371310986861183,0.2574567895073261,0.4568571301880064,10.539127336498408
1520531468.0327313,-0.2340498173593907,0.0577180262761281,-0.0332408207535388,0.2887235500441287,0.5443919459380666,10.505035468593746
1520531468.0377462,-0.2353286735890422,0.0367174519634331,-0.025823264194238,0.3488519356918264,0.6007468628402417,10.402126588856415
1520531468.0427625,-0.2330865784101068,0.0162944692032971,-0.0159728825270054,0.4210059984690635,0.7062656005026987,10.34205204195169
1520531468.0477772,-0.2240621434572991,-0.0064583883376921,-0.0056117952787728,0.4642984361354058,0.8549556412471693,10.222946978523035
1520531468.0527942,-0.2115136443188552,-0.0304001722665749,0.0139324259630649,0.4823369518297149,0.9269026617524726,10.141351165526324
1520531468.0578103,-0.1956896394159539,-0.0488080124101899,0.0348655479027638,0.50518573837584,0.9544811119516412,10.057427509947706
1520531468.0628242,-0.173081801067534,-0.0692579849627043,0.0576643279882785,0.4534753267188202,0.9329006117086872,10.026573988716612
1520531468.0678413,-0.1529895894454594,-0.0911636794138966,0.0796450221922548,0.4979703320981162,0.8885289506237211,9.99829271227982
1520531468.0728571,-0.127610814936125,-0.1046098706965417,0.0989749257224991,0.4751215455519912,0.8429633940733592,9.986938103701217
1520531468.0778725,-0.1037407586231915,-0.1192243761148119,0.1191103749388366,0.3584724773954579,0.7326515601359407,9.98237035361444
1520531468.082888,-0.078870642702544,-0.1332360510174988,0.1319436642433748,0.3055594980254842,0.6427201494184176,9.94578447000591
1520531468.0879042,-0.0552526574818951,-0.1411160313655229,0.1399561458295488,0.2105566487021219,0.5228135062143335,9.94798824734277
1520531468.092919,-0.0321463652473191,-0.1513076172041426,0.1406470369904554,0.1432128567767008,0.419692674758844,9.949906437632334
1520531468.0979342,-0.0072761355578291,-0.1556606252731636,0.1375914802520372,0.1191615025176218,0.3225641736616933,9.906073784979757
1520531468.1029513,0.0150800983071118,-0.1591331800050446,0.1318418010432487,0.0927050128326349,0.2865920214785283,9.857556330321422
1520531468.1079671,0.0359234897328072,-0.1625895715556162,0.1198723665683598,0.038589465749707,0.1966607044209697,9.898845796702
1520531468.1129825,0.0504840615234587,-0.1651691718953765,0.1060274481598741,0.0518177105922004,0.0815421935137236,9.915099313008346
1520531468.1179993,0.067047759402007,-0.1750413389459393,0.0953697695832929,0.1035281222492203,-0.0047999443504807,9.867032285885008
1520531468.1230142,0.0828610342745641,-0.1831691363547088,0.0860795591678893,0.1035281222492203,-0.0239861911250866,9.868213139267224
1520531468.1280303,0.096158686352907,-0.1912891771460815,0.0735474652343842,0.0662485231476479,-0.0599575003685703,9.897664675049407
1520531468.1330452,0.1069402294990539,-0.2005706415845678,0.0591173249210452,-0.0143235136202668,-0.1151116846279344,9.904313423206546
1520531468.1380622,0.1152064987588185,-0.2107236020050107,0.0433324531049846,-0.0479954095829773,-0.1858583471302852,9.897737292076895
1520531468.1430783,0.1219697736412533,-0.2162099017045428,0.0256921297221967,-0.1117314983695367,-0.2434121234759795,9.982088153055251
1520531468.1480925,0.1244557386123568,-0.2234367127081593,0.0045293054764477,-0.1225546077861223,-0.3141605655176575,10.029910391701804
1520531468.1531093,0.1249323204844166,-0.231545749248666,-0.0139309952800471,-0.1478085297581552,-0.3597259347480901,10.055767799771065
1520531468.1581252,0.1259124722906173,-0.2373162283490681,-0.0350799037596203,-0.0973006858140894,-0.3861109577816863,10.028572601917611
1520531468.163139,0.1241311518322866,-0.2413409401588071,-0.0556692479795489,-0.0227414876109444,-0.3465451307268664,9.998754701368464
1520531468.168157,0.1203448430459257,-0.2447989676107176,-0.0705689484287619,0.0650459554346938,-0.3153743168955473,9.9943833975662
1520531468.1731722,0.1173172646017318,-0.2468092466634202,-0.0819418369745249,0.1311871796471613,-0.2122533917800931,9.991314768378844
1520531468.1781871,0.1153021302901786,-0.2473796916031189,-0.0868123754851957,0.2141643518409839,-0.0863501098592987,9.907872118114655
1520531468.1832042,0.1132965343225408,-0.2441767063093662,-0.0862430959688172,0.2346080029612012,0.0443546040733061,9.805277006205914
1520531468.1882193,0.1140670102244574,-0.2345723764391607,-0.0818423999889951,0.3500545034047803,0.1882424635262495,9.69593361233665
1520531468.1932352,0.1150999933910055,-0.2206146625496475,-0.0709157229511709,0.4510701912929122,0.3824953446821086,9.608762302026182
1520531468.1982503,0.1163951780363157,-0.2017171534309018,-0.0548113481642316,0.4943626289592545,0.4880163301837159,9.518752933665994
1520531468.203266,0.1194519086364621,-0.1845832877706135,-0.0327715692422219,0.5725295303012613,0.5191878932947518,9.507502406589824
1520531468.2082813,0.120250599676068,-0.1654135302434213,-0.0096298446299984,0.6001885876992021,0.5359737050433463,9.531621842581126
1520531468.2132962,0.1205355708658791,-0.1511829379699354,0.0080641030604801,0.629050212810097,0.5131877891593515,9.48952595632075
1520531468.2183132,0.1215689852520534,-0.1401536379747072,0.0243794671632331,0.6362656190878208,0.4808104357674164,9.46856870696599
1520531468.2233293,0.1195897579104956,-0.1282571933126431,0.0428714683683805,0.6230373742453272,0.4160578831627319,9.46759846295194
1520531468.2283452,0.1143370124783705,-0.1175108127672327,0.0551380890290885,0.5172114155053795,0.3249314530602381,9.435015203028074
1520531468.2333612,0.1055673615008398,-0.1050138612803096,0.0660718528479463,0.3945495087840766,0.2086243853055783,9.472349007271564
1520531468.238377,0.0985576021150417,-0.0890064945178595,0.0721592005013977,0.3211928782938855,0.0791229328348285,9.551052949285214
1520531468.2433922,0.087269313606566,-0.0709305157037199,0.0669071164197769,0.1889104298689508,-0.0395816664869402,9.584996300795956
1520531468.2484071,0.0732153384146582,-0.0508020880192003,0.0565353558691844,0.1167563670917137,-0.1786763360049575,9.695075779231091
1520531468.2534242,0.056636990076341,-0.0353200434122241,0.0399101375806233,0.040994601175615,-0.2877922139577593,9.801674707491609
1520531468.2584393,0.0330202084699931,-0.0207119954180225,0.0222091347041255,-0.0239440553238983,-0.3717269859585721,9.858171544088622
1520531468.2634542,0.0093886508386406,-0.0145431722492976,0.0003854739151312,-0.0900852795363658,-0.3753192559307581,9.869278125797788
1520531468.2684712,-0.0149929377689084,-0.0078020734275613,-0.0176446979908126,-0.105718659804767,-0.3645257745405025,9.879879063066056
1520531468.273487,-0.0403817916784958,-0.0033960868016739,-0.0343380582066418,-0.0744518992679643,-0.3249565757269571,9.833050385234968
1520531468.2785032,-0.0637464903961661,0.0088678716705057,-0.0471874863626654,-0.0323620293145758,-0.241020024186817,9.86045030941383
1520531468.2835183,-0.085600189254069,0.0217071771887753,-0.0570592638327843,0.0049175697869963,-0.1378968512322126,9.901824071841032
1520531468.2885342,-0.1094637142270348,0.0322022355162157,-0.0623458119688883,0.0145381114906282,-0.1079190899266075,9.923781933038542
1520531468.2935505,-0.1340772662440661,0.0447330480127422,-0.066262668858505,-0.0010952687777732,-0.0923290468427005,9.915783889682306
1520531468.2985642,-0.151653400390993,0.0560923379824505,-0.0669549355901424,-0.0275517584627602,-0.0551536331976804,9.925302303040697
1520531468.3035822,-0.1712387804068136,0.0686178352791326,-0.0681756679861732,0.0181458146294897,-0.0659494560870508,9.848166533971282
1520531468.308597,-0.1888156633556291,0.0791015148048267,-0.0683335121819368,0.0518177105922004,-0.0443675509446278,9.783899826802802
1520531468.3136122,-0.2013674518225826,0.088126598649551,-0.0671590767901686,0.1203640702305757,-0.041974608715784,9.685610207753598
1520531468.3186293,-0.2146745010825599,0.0959851205874108,-0.0657215876739236,0.1865052944430432,-0.0491746025543139,9.58038048980593
1520531468.323645,-0.2214491882139576,0.1029727772185435,-0.0645734485145629,0.2009361069984905,-0.0671628328250821,9.544231106636769
1520531468.3286602,-0.2272246665119793,0.1044194226358034,-0.061575593597861,0.3260031491457013,-0.0611768713443357,9.48606288031545
1520531468.3336751,-0.230739815721832,0.1061641661287738,-0.0607440832725013,0.3344211231363789,-0.0731689311982166,9.469722622953896
1520531468.3386912,-0.2327492811326696,0.1073311018868153,-0.0615430948327961,0.3524596388306883,-0.0899583020254657,9.481184857399189
1520531468.343707,-0.2307351112328182,0.1084901433296422,-0.058832477318716,0.3753084253768133,-0.08036695817749,9.534411728507171
1520531468.3487222,-0.2284849007347337,0.1015043566540983,-0.0613249449386991,0.5208191186442414,-0.0384083762137555,9.634061013822915
1520531468.3537393,-0.2279988041115448,0.0883878792505948,-0.0598026418487658,0.6795580567541629,0.0730993200483148,9.752108025108996
1520531468.3587542,-0.2244928248085992,0.0729167404389429,-0.0491051636599231,0.7168376558557353,0.2133958461287183,9.81901270501228
1520531468.3637693,-0.2219952203138055,0.0507236960385571,-0.0311522103507824,0.7072171141521038,0.3453020419838509,9.947975697064546
1520531468.3687863,-0.2179944920757942,0.0229854667489749,-0.0097271993554358,0.6494938639303142,0.3728867674006474,10.03683358549092
1520531468.3738012,-0.21224034486701,-0.0079529325656303,0.0100468152631986,0.6867734630318866,0.3752821447885708,10.04344125378852
1520531468.3788185,-0.2054715463097507,-0.0330683465296857,0.0317572459662482,0.6807606244671169,0.4112568257907799,10.05857257029801
1520531468.3838332,-0.1961853568263312,-0.0538069090114564,0.0516025344449198,0.5833526397178468,0.4484377653737111,10.045538702901167
1520531468.3888493,-0.1836344740520715,-0.0730734287444323,0.0663124989254887,0.5677192594494455,0.4580321063405538,10.008492907385705
1520531468.393865,-0.1720765980183969,-0.0827217391746384,0.0800155085307544,0.5087934415147018,0.4160667808593685,9.875460827289128
1520531468.3988802,-0.1602598018387288,-0.0830288923613709,0.0875666345369273,0.5003754675240243,0.3033482366783108,9.808248331228873
1520531468.4038973,-0.1446776905875405,-0.081857250008615,0.0875465900353437,0.4498676235799582,0.1978278131364911,9.671709858854893
1520531468.4089112,-0.1270805234044622,-0.076602522905154,0.0864717513583189,0.4691087069872215,0.1150856253615694,9.542605283441976
1520531468.413926,-0.107714847575475,-0.0637681951790149,0.0843692622528392,0.4402470818763268,0.0311480435618188,9.461617981748349
1520531468.4189432,-0.0893600790855198,-0.0523788005833542,0.0776582443835759,0.3729032899509054,-0.0539856815424777,9.4170328737804
1520531468.4239593,-0.0730135881206254,-0.0389483166477733,0.0701548842099466,0.3632827482472739,-0.1223359363972945,9.426490318202791
1520531468.4289763,-0.0533963860563436,-0.0231876618650109,0.0634748790039705,0.3861315347933989,-0.1822947371072655,9.485595730758352
1520531468.4339902,-0.034282444208202,-0.0088884972162031,0.0584079671933965,0.3548647742565962,-0.1906862849120759,9.469638232241117
1520531468.4390073,-0.0139201861849061,0.0013405175010262,0.0500610478213169,0.261064492646188,-0.2590299835693712,9.521752212965238
1520531468.4440231,0.0056888770989192,0.0112742101689986,0.0430660350132478,0.2045438101373522,-0.2746144070554027,9.62574836395302
1520531468.4490373,0.0240364751522508,0.0177115246628157,0.035776132901919,0.1384025859248849,-0.2722109749105242,9.676361993409389
1520531468.454054,0.0423768165250334,0.0197824418336464,0.026829609135539,0.0830844711290033,-0.2901937729033459,9.700160845178123
1520531468.4590693,0.0624722900821792,0.0189402029203399,0.017857587453164,0.0169432469165358,-0.2949851832989446,9.782159377433906
1520531468.464084,0.0752750402667823,0.0151849056787348,0.0075241404130551,0.0361843303237991,-0.2829952776242495,9.813338289902507
1520531468.4691012,0.0931061388725777,0.0117164061956459,-0.0003815049440593,0.0987178513974045,-0.2566190586273252,9.69067878631184
1520531468.4741173,0.1096857104858511,0.0102798218152208,-0.0055637961286379,0.1179589348046679,-0.2398325912589785,9.619584353452158
1520531468.4791322,0.1217430008852525,0.0088378230797064,-0.0093849568148265,0.1889104298689508,-0.2002664832242648,9.54912652967462
1520531468.4841485,0.136070989830421,0.0102938018024365,-0.0069655315516327,0.263469628072096,-0.1642980774396837,9.479799242699771
1520531468.489164,0.1516503254159989,0.0079622739480674,-0.0045773400138202,0.333218555423425,-0.1199353140513539,9.48023922782903
1520531468.4941802,0.1634625504046722,0.0059140979082557,0.0002549885214827,0.359675045108412,-0.0911580044086661,9.500872243621604
1520531468.499195,0.1742682980830274,0.0006501002111062,0.0088523725540827,0.4065751859136161,-0.1019539209580012,9.485318399069378
1520531468.5042112,0.185567712715252,-0.0110234317443356,0.017129369367428,0.3969546442099844,-0.0827669249036785,9.49004190590967
1520531468.5092273,0.1933542206111586,-0.0197888673908389,0.027058406535075,0.410182889052478,-0.1343309933700425,9.479504136288744
1520531468.5142422,0.2044124941942108,-0.0259349329560713,0.0386246594433885,0.3897392379322607,-0.1031517501419097,9.459916272205776
1520531468.5192585,0.2154701562055241,-0.030908176101454,0.0474943457339281,0.4125880244783858,-0.0491922106276578,9.40618263397336
1520531468.5242753,0.225777924470791,-0.0332607107299614,0.0569265317538704,0.3356236908493329,-0.0491862163899237,9.375553870820726
1520531468.5292902,0.232317229629788,-0.0321057245359266,0.0617931154162765,0.2646721957850499,-0.0467824096051869,9.37391784256294
1520531468.5343063,0.2381038771735211,-0.0274427644839173,0.062359041937792,0.2045438101373522,-0.094743343543472,9.41754919526035
1520531468.5393212,0.2436380850564826,-0.0224834193426821,0.0610338369965798,0.1816950235912273,-0.1403089000938338,9.494517527202396
1520531468.5443373,0.2484151425128485,-0.0192697630075581,0.0586145101297191,0.1347948827860232,-0.1319112643913245,9.52750586974641
1520531468.5493531,0.2516841443307768,-0.0157631275851879,0.0553885690000922,0.1347948827860232,-0.165487196246885,9.5275386112454
1520531468.5543692,0.2554536698890666,-0.0160544921414912,0.0559204368575152,0.2033412424243985,-0.1978693262970143,9.51528155564665
1520531468.559384,0.2564518241346846,-0.0218847025894535,0.0569562918418431,0.2310002998223392,-0.1690921103142911,9.56147003337562
1520531468.5644002,0.2579521369545914,-0.0277132592641968,0.0574501215878259,0.2382157061000629,-0.1583004084633628,9.613685756923676
1520531468.5694163,0.2617136491661816,-0.0361735886196503,0.0617073855991978,0.2141643518409839,-0.1355148672192263,9.659221254821004
1520531468.574432,0.2657250096571767,-0.0452144032809444,0.0651480990289754,0.2237848935446154,-0.1283207739584658,9.660282742288311
1520531468.5794482,0.2647082804587552,-0.0562990640373259,0.0693942230147161,0.2346080029612012,-0.1642958296005334,9.71134681094361
1520531468.5844643,0.2654592679823914,-0.0603868932256149,0.0726082504013827,0.2189746226927997,-0.1870782800658382,9.754520520429002
1520531468.5894792,0.2644593926589209,-0.0577706537506881,0.0747944922294641,0.1528333984803325,-0.135510090561032,9.762086880670026
1520531468.5944953,0.2639641457894802,-0.0510631790854926,0.0726821894709175,0.0782742002771874,-0.0479670327340875,9.698809314921176
1520531468.5995111,0.2644822330168498,-0.0385283484833403,0.0708830274213784,0.0313740594719833,0.0299807475263682,9.694541229253698
1520531468.6045263,0.2635005366842572,-0.0192886223313626,0.0677850671940817,0.0121329760647201,0.0779478630223166,9.697006024494968
1520531468.609542,0.2587505497332453,0.0022872590854431,0.0622769794352204,0.0121329760647201,0.0719521609052523,9.670282560244177
1520531468.6145573,0.2527472794541585,0.0259008830534551,0.0573278786816853,0.0013098666481343,0.1115246378175583,9.644782150563952
1520531468.6195743,0.243977785367433,0.0477636599846157,0.0529116651640797,0.0157406792035821,0.1259131989789376,9.59581761173864
1520531468.6245892,0.2352048569892647,0.0661254520018548,0.0500920499981664,0.0638433877217399,0.1510914014720241,9.580216981952498
1520531468.6296062,0.2244218006422954,0.084192886554264,0.0480855832208177,0.1287820442212532,0.1942553990767993,9.624866426907031
1520531468.6346202,0.2121164771495288,0.091770615821947,0.0457313398160507,0.1468205599155625,0.2374230494201938,9.700188111871896
1520531468.6396372,0.1935285888213629,0.0970046094477955,0.0471586223532071,0.20694894556326,0.2218295409175967,9.737968810950058
1520531468.644652,0.1777088100022765,0.1031050984936675,0.0518339909411226,0.2153669195539378,0.1882529534422841,9.79602681476502
1520531468.6496673,0.1558539506520351,0.1089234949763311,0.0521896034678205,0.2706850343498195,0.1438804494176365,9.871071004745891
1520531468.6546843,0.1322408737338198,0.1132748100298571,0.0560544642775858,0.2911286854700368,0.1150994870363295,9.924358704822716
1520531468.6596992,0.1078714422449912,0.1179266838479323,0.0564058516957585,0.3031543625995763,0.1067045674727935,9.956789870351336
1520531468.6647153,0.0824956746081255,0.1228746473886084,0.0548675078210175,0.2658747634980039,0.0983134879678058,9.973430927834366
1520531468.6697311,0.0556076721716219,0.1252024731746696,0.0522297729345132,0.2899261177570829,0.1150995806962941,9.99642333504073
1520531468.6747472,0.0279637934382247,0.1260730809576413,0.049582322791275,0.3115723365902539,0.1294875798978859,10.065927249207206
1520531468.6797633,0.0003118621682964,0.120531043846966,0.0476976024589295,0.2261900289705234,0.0683380681613157,10.121438710363506
1520531468.6847792,-0.0306120543307215,0.1123703650860875,0.0439051204900162,0.2213797581187075,0.0575461789904582,10.13195535023043
1520531468.689793,-0.0612911798793113,0.1007189979017784,0.0379211276069068,0.2718876020627736,0.0755293516231383,10.193039827345396
1520531468.6948092,-0.0907047080903005,0.0943064886068395,0.0344097297061243,0.3428390971270566,0.1150954596578519,10.214391375951168
1520531468.6998262,-0.1186010343487314,0.0925465244468876,0.0347187433732847,0.3909418056452147,0.1918367003576919,10.274279821601532
1520531468.7048411,-0.1500093891757037,0.093691742871603,0.0377619809783517,0.2646721957850499,0.2554009770948565,10.306824764309972
1520531468.7098572,-0.18117655589941,0.0904801320327551,0.0356310335583801,0.2406208415259707,0.296173624690186,10.356991297935432
1520531468.714872,-0.2121028912919443,0.0808639874975477,0.0312863443711165,0.2646721957850499,0.3225528408059773,10.357893615297634
1520531468.7198892,-0.2442744222183216,0.0764784319856156,0.0321243763579055,0.2779004406275434,0.3321449339336697,10.324053330290592
1520531468.7249043,-0.2772052598009042,0.0685981520727472,0.0321254938030896,0.2983440917477604,0.3165545162099043,10.327355977604247
1520531468.72992,-0.3068658684899502,0.0633423412586245,0.0318700057176317,0.3260031491457013,0.2937686939858741,10.278298932674986
1520531468.7349362,-0.3342616200217948,0.0604184927627201,0.0316281018052085,0.2430259769518787,0.312961403298037,10.214007810704132
1520531468.7399511,-0.3634097359366543,0.0609840135259283,0.0338510550425108,0.2550516540814183,0.2278214966360773,10.200028055775968
1520531468.7449672,-0.3887886712689249,0.0636009008482612,0.0322949264852931,0.1913155652948588,0.1906531074884018,10.176279650244698
1520531468.7499833,-0.4151755697188978,0.0656411811734519,0.0283013055874304,0.1816950235912273,0.1031166058589789,10.175296508507117
1520531468.7549992,-0.4400592463853346,0.0659410293788134,0.02158608687907,0.1696693464616878,0.0335673979006784,10.169670660976765
1520531468.7600143,-0.4636901258616785,0.0630339547684581,0.0156557183036511,0.1756821850264573,-0.0395806362273297,10.168521321434644
1520531468.7650292,-0.4845663937921143,0.054306100071746,0.0075113868988461,0.1937207007207666,-0.0887467984867263,10.114935066603408
1520531468.7700472,-0.5054423088825871,0.0461624712917553,-0.001169590127142,0.2442285446648326,-0.0995429960159551,10.076103227797518
1520531468.7750623,-0.5240546919317854,0.0374282183842402,-0.0066126630823765,0.3091672011643459,-0.1127385983115848,10.024349683496606
1520531468.7800782,-0.5368854024544333,0.0283975611162129,-0.0093632347991487,0.2935338208959448,-0.1067416786149807,9.967550948777165
1520531468.7850933,-0.5477071689619257,0.0202505862472114,-0.0153574217969775,0.3211928782938855,-0.0719687605151931,9.90797847997594
1520531468.7901082,-0.5532422981346261,0.015586996219676,-0.0156532691458631,0.3031543625995763,-0.0863570406966787,9.764062237570162
1520531468.7951243,-0.5537487299783026,0.0103309513513035,-0.0116341627963745,0.2815081437664053,-0.1175330058260506,9.650413223892851
1520531468.800141,-0.5494835145345528,0.0047941337837438,-0.0108726980251654,0.2153669195539378,-0.1582986289240355,9.588340986002953
1520531468.8051562,-0.5359212538803245,-0.0013210815522916,-0.0104034940815156,0.1528333984803325,-0.265017256289622,9.5135143631061
1520531468.8101723,-0.5183397487542893,-0.0074296225821855,-0.0118355789815156,0.1564411016191944,-0.3225762775933337,9.479833201548448
1520531468.8151872,-0.4987551096760954,-0.0179037732907324,-0.0149280193227373,0.1155537993787598,-0.4029155015231999,9.505876686189492
1520531468.8202033,-0.4703642304317567,-0.0196293000811948,-0.0193228318986738,0.1095409608139903,-0.476062599051562,9.529249420250236
1520531468.8252192,-0.4402190932387001,-0.0228015907154483,-0.0272491236107735,0.0506151428792465,-0.437685516164085,9.504218382166313
1520531468.8302362,-0.408564355749335,-0.0233450024222733,-0.0373225750619247,0.0325766271849372,-0.4268918474539002,9.427681932981
1520531468.8352523,-0.3748958835118757,-0.021264437308061,-0.0476502984273614,0.0494125751662926,-0.3921180864144312,9.399592696451531
1520531468.8402662,-0.3399714542531805,-0.0229866758233718,-0.0523277917042535,0.137200018211931,-0.3345661832680289,9.36962850019295
1520531468.8452811,-0.3025316138779533,-0.0217889854928623,-0.0588815426320715,0.16125137247101,-0.3153818096927149,9.38448356104128
1520531468.8502991,-0.261824982832763,-0.0229312894936032,-0.0616715031022762,0.1913155652948588,-0.3261764150025457,9.324932117018696
1520531468.8553145,-0.2233807939833889,-0.0264135685543083,-0.0614990428906021,0.1384025859248849,-0.3549516641260123,9.27782730152046
1520531468.86033,-0.1869524059356622,-0.0333910642936582,-0.0621611636041762,0.0999204191103584,-0.3825288967456413,9.271255894403527
1520531468.8653452,-0.1490188594167341,-0.0403592281269442,-0.066072635408193,0.1179589348046679,-0.4340933398518636,9.226969129884544
1520531468.870361,-0.1110757196355348,-0.0394563675679832,-0.0712768133883571,0.089097309693773,-0.5012429557238341,9.188964783747524
1520531468.8753772,-0.0733787351105222,-0.036229085125831,-0.0740278268996621,0.0482100074533384,-0.5300191414469468,9.17544509235738
1520531468.8803933,-0.0369365236530995,-0.0297883239883518,-0.0799986036070198,0.0566279814440162,-0.5875785373905168,9.206797172010296
1520531468.885409,-0.0022534902432214,-0.0227625692608073,-0.087043850664464,0.0061201374999504,-0.5779814802847009,9.220063013162612
1520531468.8904245,0.029671152353605,-0.0110742882453995,-0.0945894861927727,-0.0143235136202668,-0.6403351900827721,9.195917781724242
1520531468.8954391,0.0615863467825724,-0.0022816417262254,-0.1089209999717082,-0.1105289306565828,-0.7050812801498993,9.184133747061416
1520531468.9004562,0.0945029572607501,0.0053531448166218,-0.1259687319439796,-0.1141366337954445,-0.7146741225573088,9.146989610409682
1520531468.905471,0.1254062760068529,0.0118259761923709,-0.1446448978467261,-0.0732493315550104,-0.7386601154643622,9.17450648017744
1520531468.910488,0.1535478990143491,0.0185818247737764,-0.1606082477491662,0.0277663563331216,-0.6775118213073317,9.187409346586527
1520531468.9155023,0.1836971409210738,0.0232987693084651,-0.176590893034944,0.0854896065549111,-0.6031696107340343,9.286719384907432
1520531468.920519,0.213090365368624,0.0230465844601256,-0.186928466787245,0.1263769087953454,-0.5384192123085356,9.404796951999806
1520531468.9255352,0.2387097831242348,0.0149044160407866,-0.1894732320126993,0.1540359661932864,-0.4053167794888925,9.49504516747438
1520531468.9305513,0.2590537680484656,0.0061686698276727,-0.1887660914692602,0.209354080989168,-0.329775241172253,9.596701734477325
1520531468.9355652,0.2768866464511212,-0.0049158910737605,-0.1818495127698563,0.2574567895073261,-0.2434408770851102,9.65774296936791
1520531468.9405825,0.2889464615171405,-0.0145618192996799,-0.1689590742988369,0.2273925966834773,-0.171490110181223,9.760234103394868
1520531468.9455972,0.2982432165387948,-0.0250909968601823,-0.1530941662728482,0.2153669195539378,-0.1523029268069711,9.78125103570708
1520531468.9506133,0.3067895054324954,-0.0335829633894629,-0.1364006587921748,0.1720744818875956,-0.1007365168414923,9.864134356900246
1520531468.9556303,0.3078016672405742,-0.0391669520363363,-0.1185887351766609,0.1985309715725824,-0.0407815561900698,9.924249864315778
1520531468.9606452,0.3058053272922897,-0.0392143592690093,-0.1012700640528115,0.1287820442212532,-0.0419752643355362,10.02371216303638
1520531468.9656591,0.2972744297959846,-0.0383836168842772,-0.08636750193109,0.1215666379435296,-0.0119961917904268,10.10626538064325
1520531468.9706771,0.2842214745598825,-0.0360955387696275,-0.0722570610516406,0.137200018211931,0.0143836799451165,10.156059679477638
1520531468.9756913,0.2671437784391084,-0.0367228812165736,-0.0581613834529459,0.1792898881653193,0.0179778231165943,10.15564649448497
1520531468.980708,0.2528378927148946,-0.0318128346339963,-0.0440286011893535,0.1564411016191944,0.0407632707007662,10.12330664239319
1520531468.9857233,0.231992168639608,-0.0303975916366106,-0.0315336365198292,0.1600488047580559,0.0899277470808,10.113926432680922
1520531468.990739,0.2119013525173823,-0.0284000126490819,-0.0187650799535985,0.1287820442212532,0.0995233056271825,10.147923584106362
1520531468.9957542,0.1882959556350799,-0.0255376711990039,-0.003007315150727,0.1504282630544244,0.0911276367839297,10.191882548725763
1520531469.0007722,0.1624183586711022,-0.0287880066112736,0.0100025064110726,0.1480231276285166,0.0911278241038589,10.196554534655492
1520531469.0057871,0.1332700074857743,-0.0340756714812965,0.0216501042987262,0.1384025859248849,0.0299724117895192,10.214139970721924
1520531469.0108032,0.1043686505345778,-0.0399343520532785,0.0289640549580696,0.1299846119342071,0.0191808035985556,10.199124558765304
1520531469.0158172,0.0769779915894104,-0.043167795853171,0.0354835753578677,0.1624539401839639,0.0023903088517313,10.21277062044192
1520531469.0208342,0.0480823584572851,-0.0431915015686172,0.0401365287643906,0.2334054352482473,-0.0455808340226945,10.184235340781498
1520531469.0258503,0.0184405716564252,-0.0376799250631913,0.0451036668575108,0.1396051536378391,-0.019192439230373,10.197906193215664
1520531469.0308652,-0.0127187660048249,-0.0359416410933991,0.0443632413673084,0.0602356845828782,0.0299784996872179,10.178874336808835
1520531469.0358822,-0.0416212049372177,-0.0359427654457433,0.040629272000893,0.0878947419808191,0.0455651710123996,10.151860608153749
1520531469.0408971,-0.0745419199975847,-0.0350756820912825,0.038532714838155,0.1191615025176218,0.0263764890787142,10.264302949673914
1520531469.0459125,-0.1079587718915621,-0.0318886458955791,0.0405130642429547,0.2009361069984905,-0.0120023733480901,10.26122013678448
1520531469.0509293,-0.1403662963620788,-0.0269587361624941,0.0446692524337366,0.2081515132762141,-0.0863496415594757,10.268195269204716
1520531469.0559452,-0.1737819172483167,-0.0231903877743405,0.047195139800958,0.2682798989239117,-0.1750907158902579,10.274669411213193
1520531469.0609603,-0.2046695973986836,-0.0106897170469327,0.0535706950373711,0.3163826074420698,-0.219462657955118,10.303298073363855
1520531469.0659752,-0.2375671899080386,5.238926850278155e-05,0.0634537421948132,0.2947363886088987,-0.2986042400210047,10.339612403350802
1520531469.0709913,-0.267199559866609,0.013142877207815,0.0673964969223778,0.1768847527394113,-0.2830062358401071,10.363987176554712
1520531469.0760071,-0.2930686534137742,0.0206941653752807,0.0729132875553978,0.3187877428679776,-0.2866147089861678,10.32542088137915
1520531469.0810242,-0.3156712189548831,0.0261990290319922,0.081384454043637,0.4378419464504187,-0.3537758450337835,10.276679661667943
1520531469.0860393,-0.3365166764341318,0.0287841807249564,0.0922650356789922,0.4727164101260834,-0.3537785611727568,10.204287289869995
1520531469.0910552,-0.3493228569780466,0.0305019715687147,0.1017712834342302,0.2863184146182209,-0.2806164780500594,10.145598758302446
1520531469.0960703,-0.3596278261163957,0.028747442434545,0.1025887182642006,0.1744796173135034,-0.1750834104130195,10.017586447777797
1520531469.101086,-0.3674290826438685,0.0229268978018443,0.0987710824368025,0.137200018211931,-0.1223183283239506,9.899359170269676
1520531469.1061022,-0.3702120583540089,0.0127433818191264,0.0927463986971243,0.1083383931010362,-0.1007315528633687,9.776431784370187
1520531469.1111171,-0.3742536765749392,0.0037372949960243,0.0821336606847202,0.0975152836844506,-0.112722114157816,9.774224535362082
1520531469.1161332,-0.3770505540744387,-0.0163518380525161,0.0754923002527136,0.1768847527394113,-0.134312823336911,9.768824473927564
1520531469.1211505,-0.3783407481055211,-0.0408271737606917,0.0747668029112624,0.2322028675352931,-0.2290492251448992,9.73118981259767
1520531469.1261642,-0.3758595269447419,-0.0650147471259237,0.0759303490773595,0.2730901697757275,-0.3153905200694222,9.67974169911951
1520531469.1311803,-0.3733684577220469,-0.0845518229515544,0.0814581989428298,0.2791030083404973,-0.3993308180081462,9.67395430781376
1520531469.136196,-0.37086885375697,-0.0979705521351023,0.0873032794957027,0.3031543625995763,-0.4808742399995133,9.655205418486709
1520531469.1412122,-0.3630950989544773,-0.1140111313600464,0.093659642883894,0.2430259769518787,-0.5516188419826429,9.651211086506876
1520531469.1462271,-0.3570758608324779,-0.1268478984046284,0.1003142731692913,0.3151800397291158,-0.5923952359765563,9.708655738366744
1520531469.1512432,-0.3477812031899464,-0.1335650388850856,0.1072800667395639,0.261064492646188,-0.6463523403317288,9.653452176369644
1520531469.1562605,-0.3354754406132915,-0.1411442250149042,0.1101754019361335,0.1660616433228259,-0.6115698689155524,9.643883669401108
1520531469.1612751,-0.3191561063976764,-0.1519175960523962,0.1095217189752404,0.1251743410823915,-0.5588045058465898,9.67677022111075
1520531469.1662903,-0.3035841176687037,-0.1594933169669695,0.1115993490815791,0.1768847527394113,-0.5000506524778368,9.730830371909484
1520531469.171307,-0.2880120348315436,-0.1647277636282503,0.1099071213277772,0.2418234092389248,-0.4856660250349703,9.724373547020376
1520531469.1763222,-0.2729339247341223,-0.162966264821314,0.1071869974843432,0.1600488047580559,-0.4928544986978552,9.74725724202302
1520531469.1813383,-0.2523264014188095,-0.1594491938112286,0.102576122969489,0.0746664971383257,-0.4436830914804412,9.796850404197254
1520531469.1863532,-0.238766935959368,-0.1599938668685123,0.090371908426663,0.1576436693321481,-0.4508843965584754,9.773969036209175
1520531469.1913693,-0.2234364606487069,-0.1535526348237207,0.0811937857232815,0.16125137247101,-0.4700709243129751,9.737926167887098
1520531469.1963851,-0.2078539377070689,-0.1462356938793731,0.0714807737607549,0.1708719141746417,-0.4460888651244346,9.734322708788037
1520531469.2014012,-0.1902623453165188,-0.14037707322036,0.0625645502732135,0.1504282630544244,-0.4592778175625781,9.69502166303558
1520531469.206417,-0.1782054900688746,-0.140354136577664,0.0557785001586593,0.1816950235912273,-0.501250167541108,9.670353235403637
1520531469.2114322,-0.1638795514487352,-0.1339154836482426,0.0474138820360668,0.1059332576751284,-0.4640709138375394,9.714053730747857
1520531469.216447,-0.1513307777185125,-0.1373692967831472,0.0332954822619216,0.0013098666481343,-0.4065040250968018,9.62204442603543
1520531469.2214632,-0.1450635534257628,-0.1411213264202936,0.0208098028596573,0.0963127159714967,-0.4185028284681336,9.5816185255268
1520531469.2264793,-0.1345183605958494,-0.143135030046559,0.0126582620080577,0.1841001590171351,-0.4616787208884124,9.563373993307383
1520531469.2314963,-0.1297536132168781,-0.1457344956359367,0.0047835555169806,0.2706850343498195,-0.5444261536213515,9.58701693669152
1520531469.2365122,-0.1232248578675918,-0.1489349802988713,0.0039353290858171,0.2875209823311748,-0.6415578391572985,9.602055653785628
1520531469.2415273,-0.1177027444522118,-0.1512529640292803,-0.0001509119471471,0.3392313939881948,-0.6943240451659423,9.651575977317703
1520531469.2465413,-0.1109269948687941,-0.1550244643941741,-0.0053327856066208,0.3548647742565962,-0.7338968967181065,9.663083839321592
1520531469.2515593,-0.1089192387394156,-0.155014935577027,-0.0085830701436061,0.3885366702193067,-0.7950556807911715,9.68838290103621
1520531469.256575,-0.1023833090213745,-0.1517998616220434,-0.0112762099692673,0.3692955868120435,-0.8322275353575372,9.64676924910388
1520531469.2615912,-0.0965949325355268,-0.1409959735648492,-0.0187799755332875,0.3488519356918264,-0.8634035941468736,9.612134319257049
1520531469.2666051,-0.0895506342861439,-0.1307750907156002,-0.0260199749883822,0.3368262585622869,-0.878991483051595,9.544862221886843
1520531469.2716212,-0.0857700570516374,-0.1196878900861246,-0.0308123247219098,0.3993597796358923,-0.8765980725229283,9.609331281710451
1520531469.2766373,-0.0794738491586545,-0.1056814890418965,-0.0372103862104622,0.3644853159602277,-0.9425480796716628,9.6678422397165
1520531469.281654,-0.0711704614503314,-0.0937125351822495,-0.0441688348741547,0.3632827482472739,-0.9077729137327252,9.670144321843123
1520531469.2866693,-0.0656432828417126,-0.0901933587629193,-0.0517277108476432,0.3428390971270566,-0.8586065641533993,9.685403236297985
1520531469.2916842,-0.0641321339554022,-0.0831791433047412,-0.0592524422250756,0.3404339617011487,-0.8382209896354513,9.71329822254485
1520531469.2966993,-0.0575891161125315,-0.0729628279529824,-0.0648682328582202,0.3248005814327473,-0.8562068784071046,9.68209004160322
1520531469.3017173,-0.0517966075195773,-0.0604164601805733,-0.070194292743173,0.3199903105809315,-0.8466133803799434,9.690262514794462
1520531469.3067312,-0.0447469500874793,-0.0493352639397339,-0.0722872509202155,0.3921443733581686,-0.8610086850587733,9.71978998628958
1520531469.3117473,-0.0386996809805555,-0.039434568251589,-0.0689763166273864,0.4787292486908531,-0.9113793263595648,9.729455630063349
1520531469.3167632,-0.0321547853005061,-0.0330295615488076,-0.0659635387007163,0.530439660347873,-1.0013188854940078,9.722067149355428
1520531469.3217802,-0.026115392310132,-0.0292493977959489,-0.0621581974075861,0.5677192594494455,-0.9989235081060844,9.704269794614426
1520531469.326795,-0.0193227653904558,-0.0269302318993365,-0.0567420963354104,0.5448704729033204,-0.962947515864371,9.666106360019803
1520531469.3318112,-0.0097674351985088,-0.0257755211009372,-0.0513400215604576,0.528034524921965,-0.9077857451478748,9.662730009341631
1520531469.3368263,-0.0022264121365632,-0.0278282846092287,-0.0454175751459372,0.5448704729033204,-0.8442326139464968,9.70201705801488
1520531469.3418422,0.005309153702349,-0.0345461142784776,-0.0384485145127653,0.532844795773781,-0.8394351156531994,9.69167013563417
1520531469.3468573,0.0133512768186943,-0.0383499017637143,-0.0314581564730402,0.5124011446535637,-0.8214464170826081,9.676743710099826
1520531469.3518732,0.0223914718688635,-0.0459347384019816,-0.0269334784985361,0.5412627697644586,-0.7962667160300883,9.645060345857434
1520531469.3568902,0.0306855994942234,-0.0485699755982339,-0.0210168784244488,0.5376550666255967,-0.7746819074287628,9.616020814064742
1520531469.361905,0.0397313889975759,-0.0494413132116798,-0.0207698038222439,0.4919574935333466,-0.7159204676028774,9.619894740448364
1520531469.3669212,0.0490256664067061,-0.050595924155131,-0.0235014238835335,0.4931600612463005,-0.7027300166053005,9.64543733965301
1520531469.3719373,0.0593277305135569,-0.0514660410598007,-0.0235272287935864,0.531642228060827,-0.6559665372110655,9.66244933292992
1520531469.3769522,0.0718896375705949,-0.0532072401532705,-0.0243755411567137,0.5448704729033204,-0.6307856185790057,9.633242422329513
1520531469.3819692,0.082434736292321,-0.0575622180328283,-0.0287572241481727,0.5232242540701493,-0.6139959667718629,9.600896711877551
1520531469.386984,0.0932352659502422,-0.0601746177416295,-0.0309616681838356,0.503983170662886,-0.5996047831314749,9.615015688160003
1520531469.3919992,0.1035345622557448,-0.0616209478212748,-0.0334268323276188,0.5003754675240243,-0.6067993446920583,9.641787130311824
1520531469.397015,0.1160943601372668,-0.0639405453829235,-0.0359028662367726,0.5352499311996888,-0.5828192523627741,9.596100682675925
1520531469.402032,0.1276548981991882,-0.0633532473734204,-0.0359198893366342,0.5352499311996888,-0.5804209715159484,9.610044071448051
1520531469.4070482,0.1412255602977796,-0.0639350704151621,-0.0343262631884973,0.5124011446535637,-0.5732243494361439,9.685798808508896
1520531469.4120631,0.155303128581636,-0.062482103872245,-0.0308241876184273,0.4847420872556228,-0.5420445442482236,9.672091894535578
1520531469.4170785,0.1676231889095756,-0.059864288408948,-0.0273099526442197,0.4414496495892807,-0.5312489086787823,9.66669203274258
1520531469.422094,0.179187114208846,-0.0569466426121695,-0.0270386451657034,0.4041700504877081,-0.5096614775984483,9.66935812929374
1520531469.4271102,0.1907573357090947,-0.0476105244732016,-0.0296944346652897,0.3187877428679776,-0.5396333383262837,9.64232696687999
1520531469.432125,0.2008200347629813,-0.0356416098558307,-0.0363856044959802,0.3260031491457013,-0.5804046746821089,9.67018794897718
1520531469.4371412,0.20786798291362,-0.0233839490398027,-0.0425278587703029,0.3969546442099844,-0.6031938686648645,9.756680364660207
1520531469.4421573,0.2151630036780533,-0.0152099437367403,-0.0470784275868237,0.4306265401726951,-0.5516334529371196,9.753978053584095
1520531469.4471722,0.2204442465724296,-0.0093670738652866,-0.0519135931955518,0.359675045108412,-0.5228485568372998,9.715127693327805
1520531469.4521885,0.2232023825858366,-0.0108090733005042,-0.0570702146002077,0.3067620657384381,-0.4952642060603615,9.736534412183762
1520531469.4572053,0.222949594017233,-0.0096334356119251,-0.0608484980783153,0.3067620657384381,-0.5312384187627476,9.684273014421391
1520531469.4622202,0.2232019552983415,-0.0064171808901445,-0.0648826993016996,0.2598619249332341,-0.5780012425372304,9.673153676310564
1520531469.4672365,0.2232030726687173,0.0008965695348899,-0.0756489580050092,0.2538490863684641,-0.6727328676870243,9.668656003576542
1520531469.472252,0.2232138264233268,0.015788502962743,-0.0871690541779732,0.2875209823311748,-0.6739346305894458,9.66019442365632
1520531469.4772682,0.2161988490170947,0.0344474677135413,-0.0918835345927848,0.3067620657384381,-0.7326940098961099,9.639145849200792
1520531469.4822843,0.2084441395768631,0.062718184343041,-0.0951705235430599,0.3175851751550236,-0.7842578910425448,9.678603679724144
1520531469.4872992,0.2016949782929484,0.0915735207114288,-0.0989960250076035,0.3428390971270566,-0.8082426663700588,9.700461995454347
1520531469.4923143,0.1931830674398966,0.1154644328920963,-0.0990684093168936,0.4005623473488463,-0.8610093406785255,9.79408526396462
1520531469.4973302,0.1829117472009628,0.1355506315456728,-0.0932144169624821,0.4318291078856491,-0.8789988821887982,9.867013541702086
1520531469.5023465,0.1681143194269197,0.1533025249190203,-0.086828716479861,0.4462599204410964,-0.9149742188107592,9.909907487508567
1520531469.5073612,0.155827813890208,0.1701841629901772,-0.0815365360694867,0.4282214047467871,-0.9257650777220064,9.833392086429749
1520531469.5123773,0.1422903968648443,0.1893883722602228,-0.0732482325053656,0.3789161285156752,-0.934155220627348,9.90360881637112
1520531469.517393,0.1232337793198608,0.2164621683316664,-0.066512913101324,0.4486650558670043,-0.9437537762925974,9.911074285491928
1520531469.5224102,0.1071751450470994,0.2289606351942875,-0.0571888896830053,0.5665166917364914,-0.9377672528520636,9.789058372027116
1520531469.5274253,0.0901034314771724,0.2324112192673063,-0.0425209970981739,0.5424653374774125,-0.8957954648333211,9.805521561640967
1520531469.5324411,0.0717717894703602,0.2323603261486951,-0.0262541725452936,0.4210059984690635,-0.859811792474511,9.87639732941568
1520531469.5374572,0.053192906294034,0.2390279326168383,-0.0161583059127497,0.3055594980254842,-0.8202311671452849,9.90886031340128
1520531469.542472,0.0348606645118763,0.2445402974663008,-0.0098594408873328,0.2334054352482473,-0.7482771221426372,9.8502231147667
1520531469.5474873,0.0157746164185094,0.250930162686356,-0.0049052359156793,0.2959389563218526,-0.7231000435691257,9.857724903387824
1520531469.5525053,-0.0030599133038248,0.2573193979308852,0.000319048228604,0.4234111338949714,-0.7291056736424371,9.873922173416176
1520531469.5575192,-0.0229053151074905,0.2590439016233579,0.006321267588723,0.4390445141633727,-0.6751455721683977,9.879528107187497
1520531469.5625353,-0.0409928521831453,0.2616512608282468,0.009350884286958,0.3789161285156752,-0.6619503445126262,9.97307201361459
1520531469.5675511,-0.0593439589754516,0.2566890797475893,0.0098882544273039,0.3380288262752409,-0.5971935772095349,9.998974008206424
1520531469.5725672,-0.0799676186893963,0.2450299958878626,0.0082143269477613,0.3380288262752409,-0.5468296794261944,10.046572798080918
1520531469.5775833,-0.0998449483146249,0.2281277427656245,0.0059578919710297,0.4005623473488463,-0.494072371114187,10.106344169839163
1520531469.5825992,-0.1227381736069157,0.2103472408707364,0.0047825720012301,0.4486650558670043,-0.4473096409996688,10.117451802893564
1520531469.5876143,-0.1448780747938482,0.1919835368568197,0.0038719515868986,0.4282214047467871,-0.3933467297266916,10.144327479533615
1520531469.59263,-0.167771656858233,0.1721553305291355,0.0056570748748455,0.3416365294141027,-0.3537683522366159,10.148618087263724
1520531469.5976453,-0.1926728068356216,0.1570001438908889,0.0031527669794966,0.2899261177570829,-0.3405737802005967,10.166540701271597
1520531469.6026611,-0.2145614483832971,0.1403928582380172,-0.0007209865011622,0.2983440917477604,-0.3309813124330459,10.162962979299955
1520531469.6076772,-0.2361968112922561,0.1252425936771515,-0.0045840912785444,0.3187877428679776,-0.3645588365080044,10.110500256899842
1520531469.612692,-0.2628556966317679,0.1083260273582032,-0.0024991903925306,0.3921443733581686,-0.4317164134769656,10.03198808652314
1520531469.6177092,-0.2875144040368436,0.0817850896790414,0.0030257115388121,0.4546778944317741,-0.5324490793618056,10.030315504131726
1520531469.6227243,-0.3091500571346266,0.0566840453261491,0.0153197756149779,0.4618933007094978,-0.5264539392045289,10.04186086663911
1520531469.627741,-0.3315424294393791,0.0269088982728606,0.0319084048304239,0.4450573527281425,-0.5264526279650246,10.00134969903141
1520531469.6327562,-0.3524281064793213,-0.0028620158918386,0.0471415042267358,0.4005623473488463,-0.4916740902673613,9.949452397341082
1520531469.6377723,-0.3750722558868821,-0.03087948463303,0.0602268420305946,0.35606734196955,-0.4640903951101752,9.9370750061297
1520531469.6427882,-0.3894198901011362,-0.0553934478584921,0.0719707255107088,0.3223954460068395,-0.468884334324818,9.928110273432882
1520531469.647802,-0.3989915135825203,-0.0740559969507703,0.0756338260778226,0.3260031491457013,-0.5024605471602722,9.836298527379284
1520531469.6528192,-0.4090613791408996,-0.08951351315391,0.0793223140298846,0.3127749043032078,-0.5312388870625706,9.862022514134786
1520531469.6578352,-0.411090074198242,-0.1037957847909341,0.0805698461153915,0.3211928782938855,-0.5983914063934436,9.764385969583378
1520531469.66285,-0.4103475782950253,-0.1142948020107345,0.0840055115211484,0.3320159877104711,-0.6583492705037686,9.714366901006604
1520531469.6678662,-0.4078493386357066,-0.1288797977345218,0.0901122456286841,0.3704981545249975,-0.7362963951444723,9.66177186831233
1520531469.6728811,-0.4023303302645928,-0.1428954115585792,0.1016287431456079,0.433031675598603,-0.8346307801824864,9.596179029760366
1520531469.6778972,-0.3932954670037001,-0.1574873170421641,0.1112404390948053,0.4246137016079253,-0.8945871457333778,9.527752938818908
1520531469.6829145,-0.3852577975088549,-0.1683010870969898,0.1243999986928286,0.3091672011643459,-0.9341497883494017,9.589346698050464
1520531469.6879282,-0.3747073984549006,-0.1773568242598275,0.1343216788191815,0.2021386747114444,-0.9353405930359656,9.43350018359207
1520531469.6929452,-0.3603897476417607,-0.1831840018572841,0.1361444351578331,0.2574567895073261,-0.925751778007034,9.37019662275463
1520531469.69796,-0.3438012100664791,-0.1814306534899113,0.136668061725586,0.3668904513861356,-0.9785224796939782,9.416830815669812
1520531469.7029772,-0.3261906742861172,-0.1686101267117845,0.1394386658092277,0.2911286854700368,-0.9533346302245383,9.385003647382288
1520531469.7079923,-0.3020483017049892,-0.1560733255993922,0.1403010907311969,0.2297977321093853,-0.9017668153595906,9.316983830373363
1520531469.7130072,-0.2801749575780008,-0.1458546466149297,0.1360095594580078,0.2779004406275434,-0.8562032256684855,9.36179480743937
1520531469.7180233,-0.2570502158243781,-0.1367893585648456,0.1273780678928041,0.3500545034047803,-0.8765942324643801,9.40876028494402
1520531469.72304,-0.2293974337801117,-0.1251034797247142,0.120110912556009,0.3428390971270566,-0.8466151599192708,9.40531484993868
1520531469.7280562,-0.2024996028108687,-0.1137070954852973,0.1120312966160146,0.3296108522845632,-0.8178347594977513,9.417036980959567
1520531469.733071,-0.1738471610529449,-0.1031732491729502,0.0998835559186737,0.3296108522845632,-0.810639916957274,9.403084237473442
1520531469.7380862,-0.1446959440259504,-0.0935046183585847,0.0844816617680467,0.3632827482472739,-0.7842614501211995,9.413190066017984
1520531469.7431033,-0.1155543163290959,-0.0902435334203916,0.0679486761570037,0.3741058576638594,-0.8094442419525512,9.392190685458443
1520531469.7481172,-0.0854045882843893,-0.0843574086211923,0.0506221937329581,0.3969546442099844,-0.8154417236089426,9.365244825135555
1520531469.7531345,-0.0565071360340932,-0.0773149791633436,0.0365534880173223,0.4186008630431554,-0.8034520052541767,9.380130312132236
1520531469.7581503,-0.0291114981396122,-0.0676586924348548,0.0254835952640142,0.3380288262752409,-0.8046448704599618,9.372780712572512
1520531469.7631652,-0.0042251986347602,-0.0559666122950038,0.0155161149241913,0.2983440917477604,-0.8310228689962134,9.431299902609029
1520531469.768181,0.02292899635681,-0.038732969450306,0.0039633973204013,0.2923312531829907,-0.8274249794261515,9.484813541767489
1520531469.7731972,0.0470674760334307,-0.0206219839038228,-0.0092003257236113,0.2995466594607143,-0.8765902987458669,9.499899125743015
1520531469.7782133,0.0712015530747759,-0.0068868652842076,-0.0205035737759592,0.3175851751550236,-0.912565916347722,9.575297987098356
1520531469.783229,0.0925707588178477,0.0018732372905713,-0.0242641952373511,0.4258162693208793,-0.8801975543123881,9.631158013616986
1520531469.7882452,0.1099131536905632,0.0053832009300723,-0.0267046351824683,0.4931600612463005,-0.8742070971533409,9.674658154021191
1520531469.7932603,0.1259980350877788,0.0053836746361975,-0.024570138304623,0.4931600612463005,-0.8790036588469925,9.738580748860242
1520531469.7982752,0.1405681216295593,-0.0022033665665595,-0.0184324528666805,0.555693582319906,-0.853826580273481,9.726326090259644
1520531469.8032925,0.1558894231011822,-0.0109520083565241,-0.0136577894192965,0.5496807437551363,-0.8262458822351622,9.706601273517306
1520531469.808308,0.1621650213133778,-0.0194149953118998,-0.0080524631611317,0.5520858791810441,-0.8154538057443754,9.74026951402356
1520531469.8133233,0.1679348149821599,-0.0284529354911988,-0.005426654481957,0.50518573837584,-0.7482982892946355,9.713931217279164
1520531469.818339,0.1742076571894003,-0.0331017000733258,-0.0095320803672119,0.4919574935333466,-0.7674835058096308,9.678052219747055
1520531469.8233552,0.1824879026860562,-0.0383251617550272,-0.0163511451682689,0.4775266809778992,-0.7506944159622757,9.746742802973603
1520531469.8283713,0.1887588121377622,-0.0432602118469725,-0.022352615410142,0.5196165509312874,-0.7327105877098432,9.761423457314788
1520531469.8333862,0.1955416027919158,-0.0412011079417373,-0.0285722109470289,0.5364524989126427,-0.7566947074176051,9.732229374454334
1520531469.8384025,0.2010677189485145,-0.0408980877886459,-0.0320973524204044,0.5737320980142153,-0.7782821384979395,9.733049709765831
1520531469.843418,0.2083532326946019,-0.0411807896566876,-0.0342774776477921,0.5881629105696626,-0.7974695091921202,9.730603670608271
1520531469.8484323,0.2108638883358956,-0.0432209536544566,-0.03375661468587,0.5761372334401231,-0.7471046748091337,9.76902235941328
1520531469.8534503,0.2141311220218778,-0.044098926331768,-0.0318755300730173,0.5821500720048929,-0.7171266325236347,9.76661031274147
1520531469.8584652,0.2216710944281966,-0.0449774105580743,-0.0291907420680734,0.5400602020515046,-0.7219199161185255,9.793753978020428
1520531469.8634791,0.2244354207380014,-0.046732647452619,-0.0262332096810019,0.4943626289592545,-0.7135223740759808,9.833703479233328
1520531469.8684962,0.2246889620406246,-0.0455691961811092,-0.0254131463753312,0.4558804621447281,-0.6775451642547277,9.854961552037423
1520531469.8735132,0.2264474422725054,-0.0443956845724678,-0.0281129800560044,0.481134384116761,-0.6811445523842228,9.83031423083162
1520531469.8785293,0.2246889267829241,-0.0423493977595313,-0.0307996103549503,0.4534753267188202,-0.6607570110070184,9.793374961827167
1520531469.8835442,0.2231872496572591,-0.0376871076250273,-0.0310317865462702,0.4594881652835898,-0.6403720921088225,9.772377966601848
1520531469.888559,0.2204274122266548,-0.0321416865824716,-0.0347720565120208,0.4402470818763268,-0.6811413679454266,9.687768496381162
1520531469.8935752,0.2154126480125592,-0.0263268916134646,-0.0306600719018841,0.4546778944317741,-0.7375020917654065,9.695818002328313
1520531469.8985903,0.2101436838700081,-0.0216733626227639,-0.0281797882851219,0.4871472226815307,-0.7734788332868368,9.735049940425744
1520531469.9036062,0.2053774428193907,-0.0193616394053401,-0.0216600343588605,0.531642228060827,-0.8298418986059319,9.754428259504431
1520531469.9086225,0.1955884830584648,-0.0138430133431892,-0.0164592215082734,0.5412627697644586,-0.8850031073626405,9.77879343169711
1520531469.9136372,0.1885647787613449,-0.0074484222571332,-0.0115274192536433,0.4510701912929122,-0.929364278531572,9.758795985305373
1520531469.9186542,0.1790287487313037,0.0004064774963771,-0.0082031097151595,0.4534753267188202,-0.895788533995941,9.730848378792272
1520531469.9236703,0.168488189875003,0.0111857551666668,-0.008912890869013,0.4186008630431554,-0.8909892561633164,9.704453837124596
1520531469.9286852,0.1604576790203884,0.0225611697751118,-0.0142221733152814,0.3308134199975172,-0.8274279765450185,9.659922717048934
1520531469.9337022,0.1511718227162766,0.0365665655932303,-0.0224851192323206,0.3127749043032078,-0.8226300099518982,9.622905009003318
1520531469.9387171,0.1428812666125094,0.044751220567268,-0.0332293068117478,0.2839132791923129,-0.7818569877167103,9.526688224622877
1520531469.9437325,0.1358461971205204,0.0538178057115708,-0.0466746177106152,0.3127749043032078,-0.750681584547126,9.529863332310809
1520531469.9487472,0.1318268468756119,0.063470526670163,-0.060932720805823,0.3524596388306883,-0.7099139009299202,9.494572989287676
1520531469.9537642,0.130315948988294,0.0681634109095148,-0.0725278246249947,0.3248005814327473,-0.6631452702376324,9.432040827826912
1520531469.9587803,0.1313123234370517,0.069949261879897,-0.0863141936971853,0.261064492646188,-0.6043824255122782,9.353578109307373
1520531469.9637942,0.1348222624907324,0.0737830734074243,-0.1027951273639343,0.2297977321093853,-0.5348298457952521,9.375895354228138
1520531469.9688122,0.1410960495804983,0.0776194248080457,-0.1198222867784703,0.2358105706741549,-0.4700767312307801,9.373449396718089
1520531469.9738283,0.1483780271941724,0.084958611806891,-0.1389890032295864,0.3031543625995763,-0.4077266741713282,9.384354547459422
1520531469.9788432,0.1566636985882923,0.0890834932237998,-0.1546649438654772,0.3777135608027212,-0.378953110927224,9.399870785178068
1520531469.9838593,0.1646925629440656,0.0859090943814885,-0.1649850769928118,0.4246137016079253,-0.4077361338277523,9.47498170914368
1520531469.988876,0.1729644461861898,0.0733959204999902,-0.1699658976552998,0.4546778944317741,-0.426924722101473,9.533977133826191
1520531469.9938903,0.1824964616786191,0.0585295813147553,-0.1665799138436829,0.4727164101260834,-0.4676969013969796,9.572192066003517
1520531469.9989052,0.1905240675017356,0.0445295206674709,-0.1604790014774971,0.4630958684224517,-0.4976746627025845,9.552558492714445
1520531470.0039222,0.1998060504305164,0.0270245967975665,-0.1511605490005681,0.4655010038483596,-0.514462815950294,9.60368578733673
1520531470.0089362,0.2108542446133156,0.0118383265755765,-0.1369577527778395,0.4582855975706359,-0.5240553773778094,9.60841394820616
1520531470.0139525,0.2163750955639076,-0.0027687974758803,-0.1221991506807202,0.4378419464504187,-0.5468374532032558,9.563311537396604
1520531470.0189693,0.2224009199442304,-0.0156274174524964,-0.1074281435182859,0.3765109930897673,-0.4976679191851337,9.60221130285434
1520531470.0239863,0.2291857020729263,-0.0241120604288229,-0.0937073738296268,0.3404339617011487,-0.4832754243052414,9.61765629388098
1520531470.0290003,0.2347117985688697,-0.0311264328561051,-0.0851135271201865,0.3211928782938855,-0.4892696278628723,9.603903694029418
1520531470.034016,0.2397422051793533,-0.0328953522721308,-0.0767492773245323,0.381321263941583,-0.4940708725547534,9.63470100532902
1520531470.0390332,0.2425219112216392,-0.0303111437931978,-0.062124925134064,0.4642984361354058,-0.5132635818669166,9.735018589880664
1520531470.0440493,0.2450424933045118,-0.0312134500623719,-0.0513144257866566,0.4306265401726951,-0.4664944828748057,9.726003575596112
1520531470.0490632,0.2463025314466295,-0.035907889619401,-0.0391777634524112,0.3897392379322607,-0.3981402943014759,9.624066227206091
1520531470.0540793,0.2445386645071165,-0.0481860642321557,-0.0246583875938481,0.3933469410711226,-0.3393826945341391,9.664648852811249
1520531470.0590951,0.2452929372956523,-0.0552117769186113,-0.0125385764955367,0.40777775362657,-0.3453795205707787,9.726107868403991
1520531470.0641105,0.2427859628811838,-0.0558181118917159,-0.0041514326605045,0.3440416648400106,-0.3657599437906739,9.761612433788404
1520531470.069126,0.2402789100870522,-0.0529118070538141,-0.0016896215115843,0.2334054352482473,-0.3741453100378211,9.780129643667657
1520531470.0741432,0.2390266460890348,-0.0473650668469405,-0.005703237712864,0.1949232684337207,-0.4077182447745147,9.810752689781983
1520531470.0791593,0.238523358479456,-0.0426798015271679,-0.0143242035702074,0.2141643518409839,-0.3465635817398916,9.781452173721954
1520531470.0841742,0.236515359346826,-0.0350783679434451,-0.0240023218184319,0.2249874612575695,-0.3453652842561602,9.8441014324027
1520531470.0891902,0.2304881588643518,-0.0277764500552925,-0.0312402825165138,0.2947363886088987,-0.3897389122003828,9.77954788720016
1520531470.0942063,0.2319954696330319,-0.0274815610704783,-0.0323230433544371,0.3512570711177343,-0.4305140886147566,9.743011044501824
1520531470.0992212,0.2289710784134192,-0.0362344763907145,-0.0285964926918516,0.3680930190990896,-0.410130012656242,9.734692287265077
1520531470.1042385,0.2269509102341967,-0.0473253584178051,-0.0221841346458158,0.3729032899509054,-0.3873467192512558,9.733461105639408
1520531470.1092532,0.2239348224186288,-0.0543496342131147,-0.0111395062820395,0.4378419464504187,-0.3633689684210865,9.67702273600488
1520531470.114267,0.2158888454561289,-0.0631190872655406,-0.001992703236003,0.4642984361354058,-0.3621718885168948,9.797627026663038
1520531470.1192842,0.2123698110745521,-0.0692643073725803,0.007165706558936,0.4558804621447281,-0.358573811626904,9.818624045216218
1520531470.1243012,0.2093592275361113,-0.0704528798802862,0.0152787917739904,0.3873341025063528,-0.3729581580898766,9.82046740945773
1520531470.1293163,0.200811190039641,-0.075419233936564,0.0187739645616684,0.3584724773954579,-0.3489731017824687,9.876507853829484
1520531470.1343322,0.1922609610558606,-0.0789148251660891,0.0171398807537708,0.3536622065436422,-0.3106002335933985,9.845139368435284
1520531470.1393473,0.187235690154017,-0.0777483424434799,0.0160759239768307,0.3356236908493329,-0.2410486841359831,9.801085652344872
1520531470.1443632,0.1801933051309922,-0.078609227297034,0.0101303132626718,0.3500545034047803,-0.1703005230741988,9.845037670912353
1520531470.1493793,0.172655979024396,-0.0733490486953172,0.0034206830988532,0.3765109930897673,-0.1103455624227764,9.869126715747091
1520531470.154394,0.164874524525335,-0.0631368884472987,-0.0027095960996285,0.359675045108412,-0.1547124468495484,9.91930604212072
1520531470.1594102,0.1568411909510164,-0.0564352811726248,-0.0037257135764307,0.3512570711177343,-0.137923825302016,9.94261448585059
1520531470.1644251,0.1493078636535079,-0.0500175772034824,-0.0074504465440974,0.4029674827747541,-0.0755725506630242,9.979238969318288
1520531470.1694422,0.1422713278833111,-0.0473854898848608,-0.0120166507550351,0.4799318164038071,-0.116349319296796,9.930881701118514
1520531470.1744585,0.140009940275253,-0.0494362657107355,-0.008240369300143,0.4847420872556228,-0.1079557109727642,9.885503081303511
1520531470.1794732,0.1379920616236589,-0.0581931577952118,-0.0028924101552355,0.4186008630431554,-0.0168158874953333,9.961597346648228
1520531470.1844893,0.1349676743361774,-0.0654825945993732,-0.0015896571292131,0.4787292486908531,0.1054917526945497,10.03875646615613
1520531470.1895063,0.1286660641385169,-0.0800564676457632,-0.0008775056252058,0.4751215455519912,0.1510593697641326,9.923694894966228
1520531470.1945212,0.1246213408733206,-0.1007601845625136,0.0041124949122779,0.3151800397291158,0.1342838606116436,9.899700871227596
1520531470.1995363,0.1251163642686861,-0.1089304093127161,0.0083780494114865,0.2730901697757275,0.12829143659334,9.962872168426596
1520531470.2045531,0.1228597713256981,-0.1077774122005045,0.0127198765965865,0.3656878836731817,0.0803186078395514,9.913207606574556
1520531470.2095685,0.1248883291528906,-0.0955435734273444,0.0147033336647272,0.3416365294141027,0.0167660385979611,9.992529471570217
1520531470.2145832,0.121884316275728,-0.0862168078651331,0.0134273435943837,0.2899261177570829,-0.041987814770792,9.929172169137727
1520531470.2196002,0.1198830837535341,-0.0768816357390091,0.0091734817760414,0.2995466594607143,-0.0743653554826562,9.936082964571373
1520531470.2246163,0.1153636331236281,-0.0692862857281779,0.0013938520318387,0.3680930190990896,-0.0491887452089678,9.908661909283794
1520531470.229632,0.1095936708991266,-0.0576135014750902,-0.0058112291098706,0.4161957276172476,-0.0911624064270021,9.884991754816095
1520531470.2346473,0.1065840322432112,-0.0503169580000476,-0.0106198774240972,0.528034524921965,-0.1679161039021333,9.931625924403416
1520531470.2396631,0.0965301933782312,-0.049436544604887,-0.0143821817799329,0.5881629105696626,-0.2686485824670441,9.904409585132036
1520531470.2446785,0.090495728350946,-0.0494279810718702,-0.0184291688599397,0.6518989993562221,-0.2866406527963607,9.96772467471224
1520531470.249694,0.0799415264370618,-0.0503113688039742,-0.0165224144671643,0.774560906077525,-0.2650656784913177,9.979293294346675
1520531470.2547102,0.0691369038618655,-0.0511977687158911,-0.0135330097675127,0.7601300935220777,-0.2206963589054663,9.937553307119666
1520531470.2597272,0.0590831825663803,-0.05558631503724,-0.0084073150941803,0.7841814477811567,-0.1847240194023722,9.966337724669126
1520531470.2647412,0.050287762738115,-0.0573460808867021,-0.005428313436628,0.8070302343272817,-0.1451541649690747,9.99048176344039
1520531470.2697573,0.0402406355652153,-0.0588295231079359,0.002966162840615,0.7613326612350316,-0.1259643591158141,10.015312869195196
1520531470.2747731,0.0246622996490396,-0.0603063901782729,0.0081243562790123,0.6555067024950839,-0.1619303297413159,10.043107305285236
1520531470.2797892,0.0148726420724498,-0.0530292589174153,0.0095508650988397,0.6434810253655444,-0.236276099393268,10.047945430699857
1520531470.284804,0.0063408468791919,-0.0431218903225352,0.0082895891110844,0.6001885876992021,-0.2734460807603416,10.047240918293722
1520531470.2898202,-0.0029440489453492,-0.0311685695236197,0.0046103618271991,0.5713269625883074,-0.3166128881640545,10.074293246807985
1520531470.294835,-0.0109716978904282,-0.0168756674869068,-0.0020294192454795,0.55689615003286,-0.3322005897488469,10.074448908895343
1520531470.2998512,-0.0149845481209384,-0.0066591166814918,-0.0092488828766361,0.5677192594494455,-0.2854349561754262,9.991785738407213
1520531470.3048673,-0.0200057613632075,0.0012259640834133,-0.0164842642971841,0.6314553482360049,-0.2015000905146486,9.926003455232872
1520531470.309883,-0.0230215119358576,0.0053231052067765,-0.023481733717026,0.7216479267075513,-0.1859182895076261,9.89257034387252
1520531470.3148985,-0.0257900605288253,0.0044580666488887,-0.0272709115595875,0.8034225311884199,-0.1955177817725215,9.832514413084356
1520531470.3199143,-0.0255461556104357,-0.00195666508242,-0.0256970107842624,0.8034225311884199,-0.2446825391324492,9.782590165962173
1520531470.3249302,-0.0227951978979145,-0.0112777016516305,-0.0265849211578574,0.7456992809666303,-0.2446780434541486,9.749449833998275
1520531470.3299465,-0.022559686559626,-0.0202988686450835,-0.0309830378601456,0.726458197559367,-0.2590662299756695,9.76708330628538
1520531470.334962,-0.0165350695942564,-0.0249579297177016,-0.031300354479512,0.6482912962173603,-0.2890386526632926,9.7051175949065
1520531470.3399773,-0.0087479657236564,-0.0243589967821031,-0.0361802028565259,0.5593012854587678,-0.2890317218259125,9.69552447349407
1520531470.344993,-0.0007049879008419,-0.020555464021809,-0.0407655181225045,0.5508833114680901,-0.2758405215486188,9.708377129653718
1520531470.3500102,0.0113697248232865,-0.0091765435564363,-0.0444888630550712,0.5075908738017479,-0.3801623666268133,9.693792372794936
1520531470.3550253,0.0201789210071541,0.0048308420432086,-0.0508915917763368,0.4546778944317741,-0.4161324582907572,9.698991051272062
1520531470.3600402,0.0289948877335888,0.0220354447013294,-0.0542938617042834,0.4137905921913397,-0.4269215376626768,9.662210940708787
1520531470.365055,0.0388120862249902,0.0348631173926134,-0.055296431741848,0.4041700504877081,-0.4568992989682818,9.617010200426895
1520531470.3700733,0.0493742113095178,0.0430376741866499,-0.0595825220649947,0.3584724773954579,-0.4640905824301043,9.521004060406405
1520531470.3750892,0.0609523128584472,0.0599578027769788,-0.0651565162014453,0.3356236908493329,-0.5180501219443563,9.498036197660356
1520531470.3801043,0.0710178698897384,0.0733807263065429,-0.070754387021983,0.333218555423425,-0.5288421984351429,9.452746517611912
1520531470.3851192,0.0818435255010859,0.0908811432916292,-0.0755108971302967,0.3680930190990896,-0.4329136807010866,9.409314197529469
1520531470.3901362,0.0914147098985818,0.109545149246043,-0.079715089489213,0.3753084253768133,-0.3118010598961742,9.460260197912334
1520531470.3951502,0.0992250422247743,0.1267508149441327,-0.0836565843158767,0.3861315347933989,-0.185892158377504,9.507679973906264
1520531470.4001665,0.1009992237035297,0.1375312747806258,-0.0830365054305188,0.4883497903944848,-0.0875706047546392,9.580966371361583
1520531470.405182,0.1062794472678486,0.1398651469964121,-0.083299067832641,0.6146194002546496,-0.0180302944929751,9.673803179052092
1520531470.4101982,0.1047716934831493,0.1381082363576588,-0.0803336011499571,0.6254425096712352,0.0683069730530701,9.80144947608238
1520531470.415213,0.1047702703269042,0.1313808971425491,-0.0709156257555345,0.677152921328255,0.184619566745641,9.858939930459789
1520531470.4202302,0.1020049952024429,0.1231875395382706,-0.0585276269767617,0.7168376558557353,0.2913399736505549,9.788720955151351
1520531470.4252462,0.0987400666411344,0.1158623111562449,-0.0439676583283077,0.6699375150505313,0.2877462051189355,9.753154497788936
1520531470.4302611,0.0974821845971474,0.1059146812418488,-0.0291608853379093,0.5821500720048929,0.2158046168915787,9.881914962227135
1520531470.4352782,0.0949568626360817,0.0913197036654821,-0.0200688119100336,0.5917706137085245,0.1102795103515293,9.991165755326293
1520531470.4402933,0.0906749148190066,0.0793501398012986,-0.0123061931309785,0.7060145464391498,0.145045684933866,9.927264090599724
1520531470.4453073,0.084665450179912,0.0854224176463128,0.0042549926690096,0.7192427912816434,0.2265862034663307,9.90962366059677
1520531470.4503253,0.0791506796890062,0.0915211159208513,0.0110755927700108,0.3644853159602277,0.1066997908145991,10.013137966230332
1520531470.45534,0.0670723680498467,0.0807395331314204,0.0093924659551721,0.4306265401726951,0.0155599673371682,10.061393103987069
1520531470.4603553,0.0565043074685659,0.0696576869440653,0.0112214123621119,0.6446835930784983,0.0671063340702237,10.0801779135314
1520531470.4653702,0.0489732892278622,0.0693356683699453,0.0215139350191887,0.702406843300288,0.1438468254903469,9.904057496023867
1520531470.4703872,0.0379245264638081,0.0690108145561062,0.0323540835938666,0.5448704729033204,0.1570496396032505,9.88465940450802
1520531470.4754045,0.0253557939458473,0.0634572024323044,0.0369344613668714,0.4691087069872215,0.0887045360464863,9.762276216252882
1520531470.4804192,0.017313396369202,0.0631641241898133,0.0364060816344416,0.3488519356918264,-0.0300009998749284,9.768211062298104
1520531470.4854352,0.0097674923982612,0.0625987975388757,0.0288403520767275,0.3284082845716092,-0.0815624458622837,9.741731018898047
1520531470.49045,-0.0015440558913764,0.0687513205281766,0.0148396528285742,0.3464468002659185,-0.1115423613470742,9.705558213952102
1520531470.4954653,-0.0098331575133289,0.0789800377796713,0.0024877514709067,0.3272057168586553,-0.0887571947427963,9.692939693912768
1520531470.5004823,-0.0183707039190965,0.0891991869717429,-0.0063465865167734,0.3368262585622869,-0.0515845908967141,9.581243984339585
1520531470.5054982,-0.0223804687659959,0.1037959752904327,-0.0170498005150021,0.2995466594607143,-0.0455859853207472,9.56997955485036
1520531470.5105145,-0.0301612097208688,0.1181035444040435,-0.0291009662289769,0.2490388155166485,-0.0575734558363629,9.584428588063387
1520531470.5155282,-0.0359376719597685,0.1292124988103083,-0.0433446868347374,0.3043569303125302,-0.0947511173205334,9.63854717083282
1520531470.5205462,-0.0429800020644376,0.1324492081155499,-0.0560228217520929,0.4137905921913397,-0.0635819893685769,9.768773874704296
1520531470.5255623,-0.0475170984931458,0.1257608888404871,-0.0617470155092555,0.528034524921965,-0.0288158147862401,9.796681582361035
1520531470.5305762,-0.0535664493821472,0.1091350392304359,-0.0564516120953657,0.653101567069176,0.1054781719996834,9.909223398010214
1520531470.5355923,-0.0606356893007129,0.0820204096778095,-0.0517754646513382,0.728863332985275,0.1930095223310535,9.870049867200905
1520531470.5406072,-0.0659458492120523,0.0505160337657508,-0.0398311913605205,0.7048119787261959,0.1810199912962167,9.89121425289787
1520531470.5456233,-0.0684884680640884,0.0207581343041367,-0.0267965299302248,0.6927863015966563,0.1666312428149082,9.937831093701892
1520531470.5506392,-0.0705372827321052,-0.0133608665519058,-0.0173132448728316,0.6555067024950839,0.182222971778178,9.948638044628831
1520531470.5556552,-0.0725744851383913,-0.0399082402847401,-0.0061488842219818,0.5917706137085245,0.1882236378733659,9.924847542884574
1520531470.560671,-0.0741057379068519,-0.0609052708976378,-8.359041891590341e-05,0.4534753267188202,0.1558576173371468,9.842550831829564
1520531470.5656853,-0.0716100504390685,-0.0775306867435431,0.0062781279873539,0.4246137016079253,0.1558598651762971,9.835858889458478
1520531470.5707033,-0.0718809317546247,-0.0935642185108718,0.0088617839776102,0.4282214047467871,0.1426690395388617,9.781215871172646
1520531470.5757182,-0.0713916282461993,-0.1061059396015354,0.0133645380930763,0.4318291078856491,0.1342747755950779,9.782351085332335
1520531470.580737,-0.0708987140263497,-0.1148545628199168,0.0160023710462583,0.4642984361354058,0.1246791233887308,9.76112581234688
1520531470.5857503,-0.0704010090735611,-0.1218628916162867,0.0216295473662114,0.4498676235799582,0.0863077537590941,9.80778945004875
1520531470.5907662,-0.0711631423816014,-0.1314949018670689,0.0275095954306361,0.4883497903944848,0.0455339822441894,9.84348110835839
1520531470.595781,-0.0726740168076119,-0.1344122515975191,0.0285723485007731,0.4871472226815307,0.008360722778355,9.83888048711468
1520531470.600798,-0.0719217904119742,-0.1349918115612086,0.027484318576735,0.4606907329965438,-0.0120226039004426,9.807779990359386
1520531470.6058133,-0.0731780610833414,-0.1335295537539101,0.0253334004524297,0.4426522173022346,-0.0300083053521668,9.819594545836717
1520531470.610829,-0.0736773067618699,-0.1279796044561402,0.0202362004977311,0.4342342433115569,-0.0815706879391681,9.786024588147082
1520531470.6158442,-0.0774488905094509,-0.125632522725295,0.0137678845276481,0.531642228060827,-0.1379378742967053,9.79559073310926
1520531470.6208613,-0.0766940178140906,-0.121830388313574,0.0086550124447353,0.5148062800794716,-0.1475296864445038,9.77833179929994
1520531470.6258762,-0.0766846872157263,-0.1136657941008306,0.0065528916661939,0.4931600612463005,-0.158320264375857,9.728580824337437
1520531470.6308925,-0.077680987085473,-0.1040366583320437,0.0014877483523722,0.4522727590058661,-0.1583170799370608,9.677844462270288
1520531470.6359072,-0.0789244105552391,-0.092957982693012,-0.0008603538526179,0.4582855975706359,-0.1439278631559293,9.641745442336369
1520531470.6409242,-0.0779043882276558,-0.0818842484026477,-0.0010482893998401,0.4354368110245108,-0.1882942792828782,9.554850307394272
1520531470.6459382,-0.078638878648435,-0.0661432234158464,-0.0033617556864194,0.3861315347933989,-0.2254637923501288,9.600690078439037
1520531470.6509552,-0.0806306551385079,-0.0509854597613394,-0.0056773345272614,0.3308134199975172,-0.2146672201810415,9.619812290248902
1520531470.6559703,-0.0818744235839748,-0.0375640530068797,-0.0123363863841946,0.3163826074420698,-0.2746231174321101,9.597930482758338
1520531470.6609862,-0.0821138748808642,-0.024139338705982,-0.020079488717818,0.3692955868120435,-0.3345842596411957,9.61606823050557
1520531470.666001,-0.0821097740993271,-0.0177135820531145,-0.0257120446549329,0.4186008630431554,-0.3705623124021303,9.572624077063477
1520531470.671018,-0.0813521336026186,-0.0133352344664181,-0.0283855575041154,0.4727164101260834,-0.3705665271005371,9.60463738024243
1520531470.6760342,-0.0831051526793348,-0.0083802013980273,-0.0291561356786568,0.4667035715613136,-0.3573755141431723,9.625601633968758
1520531470.6810503,-0.0805865817316598,-0.0060561533660132,-0.0261670133739798,0.4618933007094978,-0.3489811565394239,9.583803086467828
1520531470.6860652,-0.0795728987270175,-0.0011080500284098,-0.0239667206495922,0.4667035715613136,-0.362172075836824,9.609336295966688
1520531470.6910813,-0.0783044434120124,0.0055848167731535,-0.0204008266571123,0.4871472226815307,-0.3765633531371765,9.626583501391726
1520531470.6960962,-0.0798051561259759,0.0096585104045292,-0.0184730818518415,0.4787292486908531,-0.3813592592110758,9.64875084927387
1520531470.7011125,-0.0752735952999642,0.015194403329641,-0.0176276065621394,0.5027806029499322,-0.3537809026718717,9.617111966578689
1520531470.7061293,-0.0745062792291904,0.0253946140136528,-0.0180922905379203,0.5087934415147018,-0.3381925454673273,9.584498209168174
1520531470.7111442,-0.0739982282801111,0.0285963985696189,-0.0167160405665513,0.503983170662886,-0.2866291326207155,9.583332603851924
1520531470.716159,-0.0739969972723716,0.0291777107620691,-0.0161705026041297,0.5184139832183335,-0.2782362735764006,9.555292502898803
1520531470.721176,-0.0729854273753763,0.0320839371154188,-0.0131741337892055,0.55689615003286,-0.2602521643440746,9.582791855905676
1520531470.7261913,-0.0712314791446589,0.0297601059654777,-0.0156300985976925,0.5424653374774125,-0.2542553383074351,9.601520773154048
1520531470.7312071,-0.0729947892993101,0.0286026198403281,-0.0188822746268464,0.5340473634867349,-0.2338692954896641,9.587637102331158
1520531470.7362232,-0.072242119887653,0.0294850815305777,-0.0218530103956452,0.5400602020515046,-0.1859041468529723,9.621233978151396
1520531470.741238,-0.0709800312890273,0.0361990728331074,-0.026132947384301,0.5424653374774125,-0.2062897213709202,9.659581197295015
1520531470.7462533,-0.0722303115452856,0.0446662141925202,-0.0325592457955959,0.5677192594494455,-0.2302744966984342,9.64425090649021
1520531470.7512703,-0.0724752279294705,0.0504989053003109,-0.0344081386374415,0.5629089885976297,-0.2242784199415113,9.704723365639063
1520531470.7562852,-0.0689512263949733,0.0586765327877228,-0.0408455278762011,0.5184139832183335,-0.1942964439374995,9.677235764344331
1520531470.7613022,-0.0669344023311372,0.0671442256381096,-0.0470073477941219,0.5352499311996888,-0.1907003339067652,9.609664036191909
1520531470.7663162,-0.0649227688942968,0.0721167610231173,-0.0537369365275603,0.5256293894960572,-0.1523270910778366,9.577180227069192
1520531470.7713332,-0.0603929212818754,0.077365640007343,-0.0545169596985752,0.5689218271623995,-0.1691184287643423,9.56515377624515
1520531470.7763493,-0.0568691040316218,0.0823241975042448,-0.0558384308536169,0.5520858791810441,-0.1427360282097548,9.60248052810664
1520531470.7813652,-0.0521011105775824,0.0785431683222038,-0.0577700199761052,0.5244268217831033,-0.1595218399583493,9.569063940481582
1520531470.7863803,-0.049090409469647,0.0744627811134001,-0.0569951061619916,0.532844795773781,-0.1691156189654045,9.611990686106706
1520531470.791397,-0.0435627133974769,0.0744678608595883,-0.0580875576575656,0.4847420872556228,-0.1631161704497563,9.614777329575944
1520531470.7964113,-0.0372814266239106,0.0750596471823264,-0.0605296926318406,0.5075908738017479,-0.1703127925295608,9.614561949539343
1520531470.8014283,-0.0350233439414075,0.0727309139259941,-0.0610927696155616,0.5869603428567087,-0.1811112378979399,9.659123554083
1520531470.8064432,-0.0330214449291191,0.0663205135388161,-0.0608748653826419,0.6146194002546496,-0.1655245665727583,9.677433439642458
1520531470.8114593,-0.0315173567741997,0.0601867321464916,-0.0552428866998453,0.6086065616898798,-0.1811129237773027,9.694939325648122
1520531470.8164732,-0.0317744774626778,0.0505469060650469,-0.0463877672270497,0.5857577751437547,-0.2134879356701229,9.648707535711198
1520531470.8214912,-0.0317772218027187,0.0423604589202694,-0.0361692695714713,0.6242399419582811,-0.223084056176293,9.691341654925662
1520531470.826506,-0.0317834827459964,0.032722188156502,-0.0278557086137495,0.6338604836619128,-0.2062968395282295,9.70982594699226
1520531470.8315232,-0.0342972786892567,0.0262845204822006,-0.0181602970054029,0.5797449365789851,-0.2062926248298228,9.685947651492842
1520531470.8365383,-0.0350462198199948,0.0239261969477236,-0.00816648336972,0.553288446893998,-0.211087126004253,9.715263438946698
1520531470.8415542,-0.0362980604626482,0.0236175662281627,-0.0019438172329446,0.5087934415147018,-0.2314690477835818,9.678527798266703
1520531470.846568,-0.0375543350661465,0.0236163455193865,-0.0016709377206868,0.4859446549685768,-0.2686406213700535,9.662516428496476
1520531470.8515863,-0.0330278786232052,0.0250713982002622,-0.0003154938335165,0.4859446549685768,-0.2218741448569515,9.667119400082612
1520531470.8566012,-0.0325256338049912,0.0244873691946242,0.0002202183411241,0.50518573837584,-0.2182782221461464,9.649496451848757
1520531470.861616,-0.0320243142086474,0.0227356167866112,0.0015586758622301,0.5063883060887939,-0.1859015243739635,9.66339890208322
1520531470.8666313,-0.0285118504883488,0.0183654988237336,0.001789341352689,0.4703112747001755,-0.2014875400793929,9.642846664010309
1520531470.8716493,-0.0242461920285797,0.0142907029101129,0.0006681002791374,0.4691087069872215,-0.2326650974281631,9.634753764207693
1520531470.876665,-0.0182221435129862,0.010511622867916,-0.00180691425151,0.4655010038483596,-0.2734355908443069,9.590667166651135
1520531470.8816805,-0.0114418619284051,0.0102374652616047,-0.0072326567831698,0.4462599204410964,-0.3585730623471872,9.544451712471917
1520531470.8866963,-0.0071733846810631,0.0093729981656805,-0.0102232651896246,0.3981572119229384,-0.4137297754255955,9.5112715296621
1520531470.8917112,0.0038820545173707,0.0105537947847031,-0.0142930971108429,0.4354368110245108,-0.4329189256591039,9.502792374661343
1520531470.896726,0.0129231905179342,0.0099905956131097,-0.0202663550290567,0.4161957276172476,-0.3921466527036328,9.515723481526086
1520531470.901744,0.0227249935483303,0.0126249088666171,-0.0232405543237655,0.4366393787374648,-0.3861525428059665,9.524815800504346
1520531470.9067593,0.0357953553806353,0.0173038358885558,-0.0275579889033405,0.410182889052478,-0.3261934611161019,9.486664094294008
1520531470.9117742,0.046847893479702,0.0173234649848137,-0.0332599885412045,0.4258162693208793,-0.2950170276869069,9.53296728390874
1520531470.9167893,0.057650101093513,0.0182178776384765,-0.0392253980957696,0.4414496495892807,-0.2614423134108862,9.59786243811248
1520531470.9218063,0.0692052329186256,0.0167742251297431,-0.0425045335436131,0.5244268217831033,-0.1954960526607355,9.663232680950822
1520531470.9268222,0.0812634877297287,0.0147436298911004,-0.044165773233211,0.4871472226815307,-0.1103541791395191,9.693728257423006
1520531470.931837,0.0905577572745967,0.0106620619154998,-0.0420497980213743,0.5208191186442414,-0.0947679761141605,9.734060352830497
1520531470.9368532,0.0998511447195573,0.0051199291480956,-0.0385922087565793,0.5340473634867349,-0.0731844787523393,9.780396307272076
1520531470.9418683,0.1116540469741284,-0.0021658840723099,-0.0365053547158612,0.578542368866031,-0.085179348405158,9.816001376157592
1520531470.9468842,0.1214446219083262,-0.011202248962942,-0.0338870136090276,0.6025937231251101,-0.0839820811810371,9.798333946376532
1520531470.9518993,0.1347639302594733,-0.0158817646190211,-0.0255603965344228,0.5701243948753534,-0.0875769736322316,9.805626354643104
1520531470.9569163,0.14305691705315,-0.0182205182705058,-0.0215353946463346,0.5412627697644586,-0.109159253414513,9.822198339462895
1520531470.9619322,0.1531120771019257,-0.0176418237359986,-0.0185736125516547,0.5580987177458139,-0.1163554071944946,9.85806794728922
1520531470.966946,0.1596524329165496,-0.017661116823949,-0.0104693704796721,0.6410758899396365,-0.0887816399935557,9.873503418952131
1520531470.9719632,0.1646918995972286,-0.0138988292388845,-0.000169060791827,0.6579118379209918,-0.1103674788544917,9.846631285321616
1520531470.9769793,0.1697256503230985,-0.0130445594782063,0.0079446508757122,0.6422784576525905,-0.146340473977338,9.872385698225472
1520531470.981995,0.1699794464253664,-0.0151016350593422,0.0144217240569033,0.5977834522732942,-0.1823112212610342,9.936771782972786
1520531470.9870112,0.1709881073587325,-0.0162835332609066,0.020633520428308,0.5917706137085245,-0.1535313827993023,9.885667910127282
1520531470.9920273,0.1719930360790487,-0.0174530481343183,0.0222460365693918,0.5941757491344324,-0.1619255530831216,9.898436268885586
1520531470.9970422,0.1717479393427511,-0.0133759485009629,0.023089264174701,0.6254425096712352,-0.1595297073953753,9.93299391736658
1520531471.0020573,0.1679836906553822,-0.0101751092581376,0.0242029025457812,0.6242399419582811,-0.1895081243207326,9.949304871263314
1520531471.007074,0.1639593104749354,-0.0095793468708626,0.0188038983707169,0.5881629105696626,-0.2158864038368778,9.899709558388174
1520531471.0120902,0.161443389759114,-0.0060582220113915,0.009366136270602,0.55689615003286,-0.2554556026504231,9.862863871515485
1520531471.017104,0.1584283879883525,-0.001085470444014,0.0018342443148864,0.5689218271623995,-0.2794393477183264,9.812798017704791
1520531471.0221212,0.1536549138499724,0.0056407265468714,-0.0078454092332823,0.577339801153077,-0.3046219522297489,9.8034434868003
1520531471.0271382,0.1508979893151286,0.016737750660416,-0.0172249043920766,0.5580987177458139,-0.271044521814755,9.872164519503055
1520531471.0321531,0.1431105561973518,0.0243354629045444,-0.0263511962132582,0.5833526397178468,-0.2542585227462313,9.861443046980638
1520531471.0371685,0.1373269979693604,0.0255162188818846,-0.0328246707384091,0.5580987177458139,-0.2590531175806262,9.920962872187763
1520531471.042184,0.1310451506102802,0.0287313706217171,-0.0373878289485415,0.5953783168473864,-0.2266792296073811,9.986810648669298
1520531471.0471992,0.1247640441888266,0.0298951757734144,-0.0376378144214214,0.6855708953189327,-0.1895129009789269,10.064922308807486
1520531471.052215,0.1159659819929699,0.0252171940646165,-0.0330577682415576,0.6879760307448406,-0.179919964911553,10.09975386260721
1520531471.0572312,0.1059048315290852,0.0176336159779951,-0.0317441700492479,0.6903811661707485,-0.1463442203759218,10.181047787790703
1520531471.0622473,0.0971078239209864,0.0132448335032867,-0.0263502630963708,0.6951914370225643,-0.0983789780792654,10.203034929125176
1520531471.0672622,0.0878106806701896,0.0100184785023953,-0.0198643467721079,0.6567092702080378,-0.0911811384199211,10.232456073750797
1520531471.0722792,0.0757528178888811,0.0108769797522562,-0.0157770863606372,0.653101567069176,-0.0647997681249442,10.180168985516724
1520531471.077294,0.0621875189051358,0.013782594701663,-0.0146474688672851,0.6663298119116695,-0.015636041024627,10.199748734208525
1520531471.0823102,0.0496283796494461,0.0161000069701083,-0.0113597972704275,0.677152921328255,-0.03722141158574,10.175259413768575
1520531471.087325,0.0342991040209551,0.0149233640554195,-0.0094463982208067,0.7228504944205051,-0.0120430217727243,10.165492913866384
1520531471.092342,0.0219824701201962,0.0128795764738947,-0.0097096362735803,0.7348761715500447,0.0071422884022356,10.187437889004288
1520531471.0973563,0.0084102163096402,0.0093689043743155,-0.0064645594898293,0.7805737446422948,0.0431129420259671,10.138147970605395
1520531471.1023722,-0.0059193212255301,0.0035275891208359,-0.0035064131146422,0.7998148280495581,0.0826830774391583,10.126300661965146
1520531471.1073892,-0.0197396238579755,0.0002987334891264,0.0032584501244057,0.8370944271511305,0.0467059612778697,10.066703543728249
1520531471.1124053,-0.0305438975253398,-0.0014669190221437,0.0081350068394372,0.7998148280495581,0.0215269158451019,10.040361645654665
1520531471.1174192,-0.0390910921117341,-0.0032163883811148,0.0073258992311009,0.8142456406050054,-0.036032948398291,10.010061570451835
1520531471.1224363,-0.0506432718512549,0.0020225472931042,0.0079284758289567,0.8154482083179594,-0.0995874844991378,9.970598945932196
1520531471.127452,-0.0599348990285315,0.0090223311280406,0.0042114560948084,0.775763473790479,-0.109177517107609,9.867563755582758
1520531471.1324682,-0.0664580168026719,0.0186434734263681,0.0013209478601656,0.7072171141521038,-0.1499429528856647,9.790407056400865
1520531471.1374831,-0.0709745192791171,0.0285706280866102,-0.0067114430974616,0.7541172549573079,-0.1691328523988899,9.72953778300884
1520531471.1424992,-0.0749884280295163,0.0370345011418611,-0.0123209698650683,0.728863332985275,-0.1475463579182018,9.612386001711164
1520531471.147514,-0.0782461546971526,0.0463691809902766,-0.016572498067054,0.7192427912816434,-0.1307576427107047,9.575274664878068
1520531471.1525302,-0.0799990365437189,0.0533726469225312,-0.0205740653952431,0.7649403643738935,-0.1127740954381664,9.54227230192699
1520531471.1575463,-0.0815032619287882,0.0574579954509919,-0.0229750549243921,0.7420915778277684,-0.1019800520881232,9.50645771136505
1520531471.162563,-0.0817494093207126,0.0627093743663325,-0.0253694857286593,0.7324710361241368,-0.0696025113762589,9.5053576357025
1520531471.1675773,-0.0809900124884512,0.0670818945044865,-0.0258786314106319,0.725255629846413,-0.0612079664525813,9.456609634589109
1520531471.1725943,-0.0789770657320771,0.0705865807870127,-0.0285611471320997,0.7204453589945973,-0.0672032939297872,9.425284414747145
1520531471.1776102,-0.0789705970432484,0.0758336875714881,-0.0293327692842308,0.7817763123552488,-0.0156450323812281,9.36769212152493
1520531471.1826243,-0.0761988728906136,0.0819567593798685,-0.0303734020323189,0.7974096926236501,-0.0192436712310065,9.307111978189743
1520531471.1876411,-0.0706647120617458,0.0857454673944575,-0.0298136780434609,0.7625352289479855,0.0071401342230499,9.293479971911983
1520531471.1926565,-0.0668902154184044,0.0889499887346011,-0.0289845872664215,0.7925994217718344,-0.020442437014561,9.268809217265469
1520531471.197672,-0.0621159336276489,0.0886604748626002,-0.0289956780938862,0.7962071249106961,-0.0036547520666745,9.238541988536996
1520531471.2026882,-0.0586007412958336,0.0866228899802013,-0.0292883197127531,0.8262713177345449,-0.0180467786467439,9.201074787662323
1520531471.2077043,-0.0523149774394599,0.0866144249027262,-0.0252417993560176,0.8370944271511305,-0.0144502003161866,9.193993070411423
1520531471.212721,-0.0455341783913275,0.0828261706232729,-0.024201117409763,0.8346892917252227,-0.0024586087621287,9.12543829383285
1520531471.2177362,-0.038005504596608,0.0767166050959829,-0.026696716962515,0.8310815885863607,-0.010852310746125,9.091779419704524
1520531471.2227511,-0.0314751653996192,0.0746816585422198,-0.0275360510524402,0.8142456406050054,-0.0396303696685296,9.055944892055692
1520531471.2277672,-0.0282151374079612,0.0720714041846428,-0.0316203146612721,0.8130430728920515,-0.0816001908280155,9.08853755470399
1520531471.2327845,-0.0219375475897445,0.0694557754139557,-0.0332752658862488,0.8467149688547622,-0.0947933579645657,9.046385493503912
1520531471.2377992,-0.0164108237935381,0.0671224946311227,-0.0316800431052872,0.8527278074195319,-0.0995903879580402,9.060277373029413
1520531471.2428143,-0.0113936446180573,0.0612996869203698,-0.0328160228605103,0.8827920002433807,-0.1079867124210451,9.08672224294054
1520531471.2478292,-0.005369819576539,0.056057856793166,-0.0331377856504958,0.951338359881756,-0.1259791573902201,9.074451155270795
1520531471.2528462,-0.0011023655913854,0.0502209135254997,-0.0291319932137815,0.9260844379097228,-0.1751419478908914,9.039880585738413
1520531471.2578623,0.0021608182992842,0.0455512998380416,-0.0259270792304473,0.84912010428067,-0.2278981322833236,9.022086857009173
1520531471.2628772,0.0044212296992474,0.0438002366188204,-0.0245918887722406,0.8503226719936239,-0.2794612641500417,9.015152569815168
1520531471.267892,0.0074375173961042,0.0435063914026887,-0.0232469830572999,0.8370944271511305,-0.3598026422590935,9.052548277700597
1520531471.2729092,0.0134707161579494,0.0461363140987997,-0.0251319979193339,0.8214610468827291,-0.3729919693370954,9.025983995218846
1520531471.2779253,0.0154831375865101,0.0502281400223185,-0.0294333428455899,0.7962071249106961,-0.3466089131627556,9.0320147957114
1520531471.282941,0.0192527141310246,0.0525708911087361,-0.0332102015548003,0.7613326612350316,-0.3070345630511577,9.024180646472988
1520531471.2879562,0.0242823876681436,0.055780275312995,-0.034006719769525,0.7553198226702618,-0.295042690517206,9.089307539798892
1520531471.2929723,0.0267967010749552,0.0587038463141544,-0.0372357068999571,0.7469018486795841,-0.2782540689696736,9.17420961310238
1520531471.2979872,0.0288067467319622,0.0610473650739159,-0.0415503903380707,0.7829788800682027,-0.2698628958047213,9.258686784692838
1520531471.3030033,0.0343335646363558,0.0610553585443753,-0.0437250254172496,0.825068750021591,-0.2302945399308575,9.291940694195034
1520531471.30802,0.0368435616518172,0.0590173798398097,-0.0440158001430311,0.8888048388081504,-0.2231046613685039,9.364528379284748
1520531471.3130343,0.038851619634934,0.0569770189309573,-0.0434940037345664,0.9116536253542756,-0.2135133175205281,9.449133137156643
1520531471.318051,0.0401076237102634,0.0543448524280805,-0.039728702576092,0.9381101150392624,-0.1895325695714919,9.495337997299035
1520531471.3230672,0.0446243104709521,0.0476367677583484,-0.0368122297021827,1.000643636112868,-0.1895374398896507,9.506350773907064
1520531471.3280833,0.0456263812138637,0.0450132439727435,-0.0362930125712518,1.024694990371947,-0.1247857302246476,9.52464783172656
1520531471.3330982,0.0468798762196206,0.0400478159583201,-0.0317338584075505,1.0138718809553613,-0.1055986405103603,9.50265373267624
1520531471.3381145,0.0468704554452,0.031005426008359,-0.0282856774054317,0.9886179589833284,-0.1823416607495276,9.586648741276948
1520531471.3431292,0.0488731895033023,0.0248849532863384,-0.0275244582953999,1.0018462038258218,-0.1727495676218351,9.643455684698996
1520531471.3481452,0.0481166898382769,0.0202101221548744,-0.0229593472602184,1.0547591831957956,-0.0900129994447892,9.63472497012848
1520531471.353161,0.0508856696508708,0.0181467468184772,-0.0137814823527281,1.0415309383533022,-0.0276566671677093,9.584820730076766
1520531471.3581772,0.0513938029117443,0.0192993700795116,-0.0089036973318102,1.0066564746776376,-0.046840197803342,9.557287431239862
1520531471.3631923,0.0508945415046916,0.0189954053129827,-0.0043057067402562,0.970579443289019,-0.0888073028238547,9.626246003105315
1520531471.3682091,0.0524063724781418,0.0183972015081552,0.0016390564593237,1.0078590423905915,-0.1199878572914917,9.6689128754827
1520531471.3732245,0.0516540911641483,0.0148791673130491,0.0094596105865583,1.023492422658993,-0.1020019685198384,9.679202465248387
1520531471.3782413,0.0516624337580247,0.0148514869324725,0.0197403546308051,1.048746344631026,-0.1247876034239395,9.699897467685124
1520531471.3832562,0.0539354570891208,0.0168636559117534,0.0303030056586784,1.0559617509087496,-0.0936105143749924,9.734661153152649
1520531471.3882723,0.0526903438670718,0.020045083640097,0.0389872618822799,1.0848233760196444,-0.0888162005204912,9.75645628957158
1520531471.393288,0.0542112741005491,0.0232217669308566,0.0498307513171068,1.0631771571864732,-0.066030846596284,9.764779770821043
1520531471.3983023,0.0569916897548922,0.028437905759307,0.0609580146286453,1.094443917723276,-0.0132711031251971,9.822531186137931
1520531471.4033203,0.0562527770381823,0.0324856712388668,0.0726240115165465,1.1064695948528156,-0.0156703205716688,9.80730860284732
1520531471.4083345,0.0582742388762832,0.0347913115831023,0.082377714665297,1.1136850011305393,-0.0048786187207405,9.858362182441155
1520531471.4133492,0.0590456321358078,0.0426364078235334,0.0908232605717801,1.1497620325191578,-0.036059079528413,9.895230040103872
1520531471.4183662,0.0590552567236484,0.0458241552781278,0.0973408160118152,1.096849053149184,-0.0456480818772738,9.95386161501158
1520531471.4233823,0.0568043758033384,0.0484216916986511,0.106293038853784,1.110077297991677,-0.1032078524607021,9.971221146988162
1520531471.428398,0.0563048086104164,0.0487041381420469,0.109542746136451,1.1076721625657695,-0.0924154013300571,9.98401761654418
1520531471.4334133,0.0563121005486658,0.0498507370434555,0.1165858317711214,1.0643797248994271,-0.1187931188864148,10.025139762436686
1520531471.438429,0.0568150863045063,0.0472153614496823,0.1214347166830147,1.0258975580849008,-0.1283832451548507,10.060387997582898
1520531471.4434452,0.0568140709065799,0.0451698423100897,0.1235835222530574,1.0090616101035454,-0.1475681806899524,10.075678449205707
1520531471.4484591,0.0550607381797322,0.0477843295562558,0.1263122560427553,1.0042513392517298,-0.1883385804461316,10.057170723698398
1520531471.4534762,0.0528067013604105,0.0524412253066601,0.1279753012925579,0.9669717401501572,-0.1571580259784946,10.023801002954764
1520531471.4584932,0.0528131739813703,0.0591518106072102,0.1247798815038637,0.9789974172796968,-0.1403709966503603,9.972533247655369
1520531471.4635072,0.0535693639283952,0.0629495744325243,0.1212902847963583,0.9633640370112954,-0.173945710926381,9.968069579071022
1520531471.4685233,0.053831749691401,0.0711084396522669,0.1213520644617554,0.9573511984465256,-0.2075211744821183,10.019295179837789
1520531471.473539,0.053082612611505,0.077531715645306,0.1165325463821582,0.9789974172796968,-0.179942630622985,10.022544025882029
1520531471.4785552,0.0543399496670234,0.0807490926203211,0.1122259323697873,0.9092484899283676,-0.1907294621557543,9.958153381771728
1520531471.4835713,0.0538374971032585,0.085724285605251,0.104148281389556,0.8960202450858741,-0.2027198361302725,9.9513209670596
1520531471.4885871,0.0540883215907582,0.0889456393445062,0.098220258894863,0.9020330836506438,-0.2099151469705727,9.90710798755264
1520531471.4936025,0.0545926873808812,0.0933304443552713,0.0931122997058408,0.9140587607801832,-0.1847341346785485,9.862804910603808
1520531471.498618,0.0558469900390135,0.0948016994597325,0.0879807094939087,0.9320972764744926,-0.178739837460953,9.833569889205688
1520531471.5036342,0.055596181280038,0.0974342597847761,0.084213541442349,0.9332998441874466,-0.2039218800125879,9.873095634716954
1520531471.5086503,0.056347443263974,0.0974432963242148,0.0809655905217203,0.8695637554008872,-0.2171074606920059,9.939971070829785
1520531471.5136642,0.0535814468625415,0.098618677888445,0.0769214283804247,0.8924125419470122,-0.2171092402313331,9.961829409887846
1520531471.5186822,0.0568492137405993,0.1000805226022903,0.0755737469249393,0.8767791616786109,-0.2326968481561608,9.893430283732709
1520531471.5236971,0.0573541479804984,0.1035853465826342,0.0726234856471982,0.8202584791697751,-0.249480412065605,9.883537496546264
1520531471.5287125,0.0578581569985273,0.1059224471606032,0.0704759697159224,0.776966041503433,-0.2206976701449706,9.887417246298275
1520531471.5337293,0.0608743231937583,0.1094340831449063,0.0653566740382582,0.7733583383645711,-0.1883205977329294,9.85255647068124
1520531471.5387452,0.0623844135601797,0.1146956208529202,0.0594418795243757,0.7637377966609394,-0.1499473549040006,9.915368465804493
1520531471.5437603,0.0636358582409075,0.1147128670451882,0.0532169903022907,0.7432941455407224,-0.0995818649012621,9.941085506508072
1520531471.5487752,0.0638826368652259,0.1156060582903715,0.0461889995415162,0.7805737446422948,-0.0636105556577784,9.917444690496986
1520531471.5537922,0.065138480249098,0.1185356928934327,0.0405274329643296,0.7649403643738935,-0.0336308274929169,9.932675494154134
1520531471.5588083,0.0656383610921514,0.1205937922722615,0.0337784137174232,0.730065900698229,-0.0096453028856862,9.922532258417531
1520531471.5638225,0.0656367459188795,0.1241115311007425,0.0259592597600025,0.730065900698229,0.0167357864293969,9.95969513948905
1520531471.5688393,0.0658930276294126,0.1319979510009552,0.018984623046658,0.7108248172909657,0.002347599907876,9.96919360409662
1520531471.573856,0.0658895620124005,0.1331802430246863,0.012770959782168,0.7793711769293409,0.0107362442537841,9.981301814001984
1520531471.5788703,0.0626148560360563,0.1311560253261538,0.0065389099817998,0.7938019894847882,0.0095359799107961,10.012540409428034
1520531471.583886,0.0598458683592003,0.1302924436304015,0.0022086403474358,0.7589275258091237,-0.0048509890311849,10.009407456272736
1520531471.5889022,0.0568308156022141,0.1326310795550581,-0.0010145250416463,0.7986122603366042,-0.0696076626743116,10.095082986342366
1520531471.5939183,0.0510466771280535,0.1303013810145953,-0.0023743045683888,0.8070302343272817,-0.067210037447238,10.092674424360444
1520531471.5989325,0.0460132674457535,0.1256409016224145,-0.003753268947422,0.7781686092163869,-0.0600129470676106,10.096434761541834
1520531471.6039505,0.0402316301769034,0.1227175075613489,-0.0010593062062651,0.8034225311884199,-0.0564174926566284,10.119428326423517
1520531471.6089652,0.0372115945384726,0.1171698220413345,0.0026916983947257,0.7950045571977422,-0.0648108200007663,10.081167696704016
1520531471.6139803,0.0311782624786084,0.1139549449974342,0.0053839047738443,0.7938019894847882,-0.0732047093046919,10.018431813607355
1520531471.618997,0.0241414522481117,0.1124901665883281,0.0072796788702019,0.8046250989013739,-0.0768029735146118,10.01832997611727
1520531471.6240122,0.0203758823769469,0.1142318979014855,0.0091938395024379,0.8310815885863607,-0.085199016997723,9.993675627212038
1520531471.6290283,0.01585988556766,0.1162545203403615,0.0148992659324147,0.8683611876879332,-0.0792062183395612,9.978199052361727
1520531471.6340442,0.0110917980054334,0.1176942752691101,0.0206007129150436,0.899627948224736,-0.0923991981561822,10.00347475061921
1520531471.6390593,0.0035659743238564,0.1223308926764438,0.0290372067510748,0.9248818701967688,-0.0995960075559159,10.01485740001195
1520531471.6440752,-0.000192742692947,0.1252206797531455,0.0374533612261787,0.8912099742340582,-0.0983942446534944,9.984968229442938
1520531471.6490912,-0.0047061481208671,0.1275274024086363,0.0458664697004774,0.8912099742340582,-0.1163813510046875,9.926878571820728
1520531471.654107,-0.0089702776512895,0.1286701422726329,0.0537291273184639,0.9176664639190452,-0.140366219992166,9.882482977104017
1520531471.659124,-0.0094563037590774,0.1353470228329806,0.062979752187769,0.9152613284931372,-0.1823359474916873,9.873250162456854
1520531471.6641371,-0.0117074865331257,0.1399944489795034,0.0681598940842877,0.8863997033822425,-0.209913929391033,9.873557978613826
1520531471.6691542,-0.0134599332279348,0.1455329795335477,0.0671232161844642,0.8310815885863607,-0.1967190763751199,9.881056412203003
1520531471.6741705,-0.0121906820569475,0.1542720939057716,0.0682697587110001,0.8635509168361175,-0.1775353584195581,9.89234310579369
1520531471.6791852,-0.010169953292211,0.1615560378702917,0.0688626938493717,0.9116536253542756,-0.1427640325391687,9.926705311324971
1520531471.6842012,-0.0089072099998839,0.1668043653635433,0.0678181921849827,0.95254092759471,-0.0708187915731927,10.009911543755274
1520531471.689216,-0.0056357971527015,0.168839509528093,0.0699920535468325,1.0018462038258218,0.0035240746198568,10.062817759302398
1520531471.694234,-0.0056352796891501,0.165325412854951,0.0764584780247471,1.0102641778164994,0.037099350855665,10.13126957570735
1520531471.6992483,-0.0028736428010304,0.1594813229744243,0.0829019838642004,1.0138718809553613,0.0358999294523584,10.21258570667266
1520531471.704265,0.0001420136634323,0.1530429075977687,0.0936693111441829,0.971782011001973,0.0395006288213578,10.223451171217803
1520531471.7092805,0.0023992455715974,0.1445703326119802,0.1022581098296024,0.9080459222154136,0.015522784331224,10.253148524848868
1520531471.7142951,0.0041596428304883,0.140176215666141,0.1111495110518,0.9369075473263084,-0.0444364846785698,10.268033941861969
1520531471.7193122,0.0026532415551542,0.1351951360194029,0.1211247170895105,0.9260844379097228,-0.0792107140178617,10.334415403598534
1520531471.7243285,0.0034098940473748,0.1313812090127794,0.1308340690631163,0.8286764531604529,-0.1511515529655018,10.362162984471084
1520531471.7293432,0.0003949941175838,0.1252310867993485,0.1418853666828213,0.7925994217718344,-0.1871229558689501,10.363711360295582
1520531471.7343593,-0.0016149731597599,0.1193749282285805,0.1521253828070469,0.7829788800682027,-0.1943170491297104,10.441675661715168
1520531471.739375,-0.0011109838023862,0.1143946362261759,0.1620968550585869,0.7925994217718344,-0.2302920111118135,10.510183594740178
1520531471.7443902,-0.0016115821217588,0.1067776494656803,0.1771905584575493,0.802219963475466,-0.1823271434550154,10.523988908169413
1520531471.7494063,-0.0023654590798479,0.0977036416131785,0.192273613153235,0.9044382190765518,-0.1535557343900969,10.549695225178224
1520531471.7544222,0.0003923318263792,0.0822132682271386,0.2100066848053237,0.8611457814102095,-0.1451583796674815,10.617512771179532
1520531471.7594385,0.0069198717649714,0.0678942803698023,0.2261183725741735,0.8130430728920515,-0.1535486162327878,10.641232037895714
1520531471.7644532,0.0129404153422422,0.0506627071905894,0.2416676711446676,0.8058276666143278,-0.1271669649579171,10.680789437214226
1520531471.7694702,0.0182071094863413,0.0346014757713977,0.2553334409549053,0.774560906077525,-0.1103765638710574,10.746157459368083
1520531471.774485,0.0239742921131013,0.0179620427951104,0.2673705557725739,0.7372813069759526,-0.1259624859165222,10.77907554824568
1520531471.7795022,0.0330052428088315,0.0016269291652427,0.2750750919386052,0.701204275587334,-0.1007777272259141,10.834022909662524
1520531471.7845163,0.0435461936949268,-0.0103244424938287,0.2782108938143314,0.6422784576525905,-0.0899808740769331,10.871774539909175
1520531471.7895331,0.0530874927316267,-0.0181968245929665,0.2813796857774772,0.5737320980142153,-0.1211531864676859,10.858526403495338
1520531471.7945492,0.0623809742847746,-0.0213976831070782,0.2810674171821316,0.50518573837584,-0.1103555840389881,10.870804507200578
1520531471.799564,0.0721815854972627,-0.0211010019515241,0.2805103462680572,0.4727164101260834,-0.1115521956433568,10.962931085446648
1520531471.8045802,0.0817268206919115,-0.018449304807931,0.2710435121949902,0.3897392379322607,-0.1043508905653226,10.948623846899714
1520531471.809595,0.092284990089314,-0.0117251147707487,0.2643113933821844,0.333218555423425,-0.0935542247362707,11.03167568124806
1520531471.8146112,0.1015817373781852,-0.0087901442971502,0.2578232539726119,0.3741058576638594,-0.0336003880044235,11.08467786426116
1520531471.8196273,0.1091150843363489,-0.007890455685919,0.2494289987574628,0.3704981545249975,0.0167637907588108,11.067231707868668
1520531471.8246431,0.1196614650520391,-0.0090300057303058,0.2412841271617919,0.3933469410711226,0.0755198919667142,11.04951985486005
1520531471.8296592,0.13171519179411,-0.0130944652114562,0.2374429587078171,0.4270188370338331,0.1198854651539818,11.103769613576173
1520531471.834674,0.1422635875771289,-0.0159968910409564,0.2346956665183134,0.4823369518297149,0.1042923312912431,11.133462125200507
1520531471.8396902,0.1533060854657743,-0.0267737865069593,0.2345928765379206,0.4125880244783858,0.1270814316140341,11.11784878566842
1520531471.8447063,0.1663522936206166,-0.0398693156498869,0.2301398337544607,0.4137905921913397,0.1438693038818497,11.135252869175783
1520531471.849722,0.1781375618727786,-0.0570483626079625,0.2270107308725294,0.4041700504877081,0.1714502829000625,11.120211743419604
1520531471.8547363,0.1904249926313603,-0.0727622772767444,0.2209158051156898,0.3801186962286291,0.1810452794866574,11.10997719424616
1520531471.8597531,0.2004510005241835,-0.087307169349823,0.2132106968341231,0.3488519356918264,0.1282855360155705,11.080117233830531
1520531471.8647673,0.2087282155555844,-0.0928132743860035,0.2031428581969417,0.3139774720161619,0.1330848138481953,11.017696229582064
1520531471.8697853,0.2172597677455909,-0.0951096805800138,0.1914757313994872,0.2526465186555102,0.1186999054254351,10.946254294369211
1520531471.8748012,0.223781815334928,-0.0944828311104793,0.1760469266986817,0.2670773312109575,0.1031099560014927,10.901967564842018
1520531471.879815,0.2297974350127199,-0.0976485479932426,0.1622134307108018,0.3308134199975172,0.0839187452487633,10.924608785363802
1520531471.884832,0.2348057893884735,-0.1031493770718548,0.1497167464130365,0.381321263941583,0.0503388796746898,10.938095641943518
1520531471.8898473,0.2367951195915917,-0.1136158510469633,0.1412460587827825,0.4450573527281425,0.0515330561199792,10.923528377163048
1520531471.8948622,0.238538341592617,-0.1205872660122345,0.1333436066913175,0.4546778944317741,0.0287486387954178,10.940889113470668
1520531471.8998802,0.237766858157036,-0.1293101579898833,0.1262441210084117,0.4775266809778992,0.0335434209497421,10.94182418399579
1520531471.9048953,0.2334764423123277,-0.1389100387891299,0.1196855919871783,0.4655010038483596,0.0119598299279564,10.993096616652188
1520531471.9099102,0.228184312496802,-0.1438386913699755,0.1096474025772674,0.4522727590058661,0.0107617197641539,11.101305929354504
1520531471.914925,0.2206279841499072,-0.1511014915622428,0.1004072666820254,0.4125880244783858,0.01676051266005,11.100524205566105
1520531471.919942,0.2085502566890479,-0.1569091413177959,0.0911866472322152,0.4414496495892807,0.0335462307486799,11.171117694669745
1520531471.9249582,0.1932139988403079,-0.1583553158277434,0.0849814463194895,0.4642984361354058,0.0671203830649129,11.256861209710866
1520531471.9299743,0.1746067632961426,-0.1633015698804509,0.0795672734732796,0.4390445141633727,0.1222828094011616,11.293079688871126
1520531471.9349902,0.154496572564479,-0.1653374831177508,0.0752603154033984,0.50518573837584,0.1342690623372375,11.307532088780032
1520531471.9400065,0.1331303698932239,-0.1676681868843233,0.0720356514481692,0.5665166917364914,0.1810307621921451,11.324321685984843
1520531471.9450202,0.1105110955715759,-0.1708888335629067,0.0744881156672937,0.6434810253655444,0.1558428190627408,11.352650717353283
1520531471.9500372,0.0848849425310986,-0.1691636806236215,0.0794188860790481,0.6242399419582811,0.1930176707479733,11.32839672570076
1520531471.955053,0.0577516120199602,-0.1671484623213613,0.0846252258116413,0.6374681868007745,0.1918175000649499,11.363133458045896
1520531471.9600692,0.0313734090038268,-0.1645516364600258,0.0903757033368422,0.6975965724484722,0.1690291490218756,11.33003039195219
1520531471.9650831,0.0024915796207423,-0.1584744778790164,0.1018389889323972,0.7589275258091237,0.171422653210507,11.313161080036885
1520531471.9700992,-0.0248799908402013,-0.149770625663782,0.1119667524766044,0.7817763123552488,0.1894079800223727,11.294326840608532
1520531471.9751165,-0.0502420449040825,-0.139599593563868,0.1185848010144729,0.8202584791697751,0.2073920892546988,11.23698968495741
1520531471.9801311,-0.0808823427226545,-0.130305511043276,0.1254765273810116,0.8118405051790976,0.2001979023339737,11.154566415638335
1520531471.9851482,-0.1075021650616801,-0.1204234420240921,0.1310125028663223,0.8779817293915648,0.200192751035921,11.138814766130045
1520531471.990163,-0.1331189051919989,-0.1125828561669952,0.1373426875490843,0.8900074065211043,0.2421617292557255,11.061955287713577
1520531471.9951782,-0.1552159641113016,-0.1029896710442862,0.1425974930343003,0.9320972764744926,0.2721369617422865,10.996436315821146
1520531472.0001953,-0.1780708320830323,-0.095139989434485,0.1459465389061641,0.8924125419470122,0.3093134056469171,11.000272765029132
1520531472.0052102,-0.2029415400462422,-0.0890292045978252,0.1454983375097238,0.9128561930672294,0.2781341624187843,10.952456279767391
1520531472.0102262,-0.2215269232369666,-0.0829254279765049,0.1485555646782164,0.8936151096599663,0.2625468354738506,10.867822253422462
1520531472.0152402,-0.2358383288353528,-0.0733138936795798,0.1481144379280957,0.8900074065211043,0.2193780612108809,10.797008683597364
1520531472.0202582,-0.2521624969058696,-0.0639879756746708,0.1452399088157248,0.8719688908267951,0.1690155683270093,10.67055968068236
1520531472.025273,-0.2639661009082356,-0.0564071357716332,0.14180254838081,0.8707663231138412,0.1630199598699095,10.593875731456574
1520531472.0302892,-0.2735120613119868,-0.0511535722627924,0.1372610191703719,0.8671586199749792,0.1438339940751974,10.518390199029604
1520531472.0353053,-0.2792871789057833,-0.0461957438966617,0.1348746331927642,0.8683611876879332,0.1342407770279298,10.45679421911356
1520531472.0403192,-0.2825520328880808,-0.0421059855395182,0.1305830894552059,0.8274738854474989,0.0682912381790181,10.436337913514844
1520531472.0453353,-0.2838061002757447,-0.0377240550107484,0.1262900350167866,0.7613326612350316,0.0551058448195292,10.355644477554696
1520531472.0503523,-0.284056246476757,-0.0336302014628335,0.1209107070163675,0.7168376558557353,0.0802912591298897,10.356053008518224
1520531472.0553682,-0.2843038404862339,-0.0274959277928006,0.1152763947172143,0.7348761715500447,0.0922812584645494,10.31983927669854
1520531472.060383,-0.2835460666915064,-0.0225326258583149,0.1117956903509472,0.7384838746889065,0.1402465944211705,10.339513835181
