Time,angular_velocity.x,angular_velocity.y,angular_velocity.z,linear_acceleration.x,linear_acceleration.y,linear_acceleration.z
1520530731.372454,-0.0884747971870519,-0.1008611572074875,0.0110013777479876,-0.2584447593499188,-0.4364623051297711,10.03135233568144
1520530731.377471,-0.0897474355953883,-0.1119306193669867,0.0095665046430737,-0.2091394831188069,-0.4856309025482472,10.013488211963912
1520530731.382486,-0.0827211085913322,-0.1227243871740804,0.0151526460489478,-0.1502136651840633,-0.5348002492464401,9.92115323472495
1520530731.387502,-0.0784616169666536,-0.134096179598176,0.0185751080729775,-0.1261623109249841,-0.5815685989588341,9.84310109289448
1520530731.392518,-0.0706841142225867,-0.1442952280869741,0.0198355611452371,-0.1442008266192933,-0.5971560195637323,9.771238944989536
1520530731.397533,-0.061393184860974,-0.1495365067232039,0.0197782768486257,-0.1935061028504054,-0.6427195155948731,9.700872505987132
1520530731.402549,-0.0516010574046433,-0.1527240565670117,0.0145952486805153,-0.229583134239024,-0.653508969606651,9.667532007060814
1520530731.407565,-0.038044500908831,-0.1573568541792095,0.0056064616941699,-0.2367985405167476,-0.6307247396020188,9.590878518975169
1520530731.41258,-0.0197065471039952,-0.1614246797203603,0.0039179923256218,-0.3209782804235244,-0.6642941152600577,9.515029113445536
1520530731.417597,-0.0031358160189732,-0.1683931995329435,-0.0029298128552461,-0.3390167961178336,-0.7266480123780579,9.547805525651048
1520530731.422613,0.0172149630406108,-0.1651508575911332,-0.013764999337867,-0.3053449001551229,-0.742239460361434,9.4951965075415
1520530731.427629,0.0400786402150235,-0.1627853268311238,-0.0232587928296236,-0.3486373378214651,-0.7350412460622313,9.499097305400005
1520530731.432644,0.055395833172326,-0.164495577239855,-0.0352046208806859,-0.3642707180898665,-0.7374383093295174,9.482981794452977
1520530731.43766,0.0722321765662455,-0.1554130829394821,-0.0511291835534399,-0.4099682911821165,-0.7566209970254689,9.514823182789083
1520530731.442677,0.0888111092143419,-0.1495300894463302,-0.0692421006085379,-0.373891259793498,-0.706259909041066,9.536503653977974
1520530731.447691,0.100628822883097,-0.1352053711965868,-0.0848467673843916,-0.4207914005987021,-0.7230442222302271,9.50443649120996
1520530731.452708,0.1124427062984838,-0.1246730223880577,-0.0988570588938626,-0.4207914005987021,-0.7482261711218974,9.46611029684497
1520530731.457723,0.121993539878447,-0.1138443477035685,-0.115025293975792,-0.4316145100152877,-0.7218442388671327,9.518486394829177
1520530731.462737,0.1297784170040364,-0.1085548535196394,-0.1304208629280006,-0.3510424732473731,-0.719452233237935,9.56418557553888
1520530731.467755,0.1380652605554089,-0.1094097325851508,-0.1363949437617101,-0.2187600248224384,-0.6966788677891955,9.567524377703124
1520530731.472771,0.1473465182750874,-0.1190093958026212,-0.1410848545682863,-0.1369854203415699,-0.634329934649319,9.591072651263756
1520530731.477787,0.1520963837244736,-0.1367797960189921,-0.1420409682020299,-0.0720467638420565,-0.5959624987381952,9.608997462628253
1520530731.482803,0.1593688659847162,-0.149897985709277,-0.1389079912650149,-0.0371723001663919,-0.5791772489493883,9.629560236418335
1520530731.487819,0.1653896879544179,-0.1615692146446874,-0.1322444686383793,0.0157406792035821,-0.5216226296640126,9.619691934017844
1520530731.492832,0.1731781835242148,-0.165950770622577,-0.1271519113173106,-0.0588185189995631,-0.4880408908906473,9.547169836901478
1520530731.497848,0.1792109745277413,-0.168002668001983,-0.1217677563549648,-0.0203363521850366,-0.4460739731900639,9.582780810802891
1520530731.502865,0.1827495678029995,-0.1546048856796045,-0.1189665695975099,-0.0143235136202668,-0.4520701436069513,9.688483232050949
1520530731.507882,0.1900580355443795,-0.1423777205128827,-0.1137463629672522,-0.0528056804347931,-0.4484697252178456,9.677232846296649
1520530731.512896,0.1930903773280739,-0.1324803915844414,-0.1096181903074635,-0.0552108158607012,-0.4376772740872006,9.647029989546558
1520530731.517913,0.191842943252827,-0.1269496768610595,-0.1076797967989161,0.0097278406388121,-0.4316866296082243,9.648716357711727
1520530731.522929,0.18959594357211,-0.1179256553566009,-0.1046306757899635,-0.054008248147747,-0.4640584570622483,9.693529768122389
1520530731.527945,0.185832529930555,-0.1144348884486183,-0.1029737225417712,-0.0010952687777732,-0.5072316333435538,9.62797678041635
1520530731.532961,0.1790489120948495,-0.1138569629868614,-0.1021450371551227,0.0614382522958321,-0.4892493973105197,9.60178341040062
1520530731.537976,0.1717590427675804,-0.1167794909190415,-0.0999893658661404,0.0049175697869963,-0.5120286633370283,9.607004341315273
1520530731.542992,0.1642221831383108,-0.1176675246331877,-0.0959238449854111,0.0253612209072136,-0.5456061874119867,9.649837423161124
1520530731.548007,0.1519077877789557,-0.1200114379148191,-0.0929427553726795,-0.0275517584627602,-0.5480003472203704,9.631760481054876
1520530731.553023,0.1441158461213229,-0.1235213023990753,-0.0891673214323663,-0.0948955503881814,-0.4796440981278195,9.578890689983435
1520530731.558039,0.1348302759424253,-0.1174197103712551,-0.0839629958577027,-0.0047029719166351,-0.4760537013549255,9.66400795534593
1520530731.563054,0.1232979295568858,-0.1008313467539696,-0.0778628010147483,-0.0383748678793458,-0.4484708491374207,9.699173120749697
1520530731.5680711,0.1112601196715028,-0.0886241459921099,-0.0680073764622779,-0.0071081073425429,-0.3765248588917279,9.697636484973415
1520530731.573088,0.1009800764738123,-0.0793388424872012,-0.0549308990749878,0.0518177105922004,-0.3177715674827625,9.75162640543359
1520530731.578103,0.0886820801769957,-0.0738343127396875,-0.0448555928654653,0.110743528526944,-0.2530225739567326,9.802124047334862
1520530731.583119,0.0733672238014153,-0.0686194352616957,-0.0358590926456015,0.1287820442212532,-0.2014609406494479,9.840248940389964
1520530731.588135,0.0570463331315361,-0.0651583577871027,-0.0249802427732013,0.1804924558782732,-0.1618933340553009,9.869922777578092
1520530731.593151,0.0404748022584007,-0.0616995640612547,-0.0132892884898261,0.2791030083404973,-0.1187319589295343,9.888677313959874
1520530731.598166,0.0256529934006888,-0.0646483554538551,-0.0024621468338647,0.3656878836731817,-0.1043490173660307,9.878523366192432
1520530731.603183,0.0105788232618683,-0.0708134015682361,0.0123991960454809,0.4186008630431554,-0.093560874593757,9.8942678350155
1520530731.6081991,-0.0032385390813782,-0.074637409582684,0.0237588933442306,0.4354368110245108,-0.0851682028693712,9.90920365025563
1520530731.613213,-0.0208303039597788,-0.0793246646839832,0.0305196420058005,0.3969546442099844,-0.0887626270207428,9.892149560765732
1520530731.61823,-0.0346529823637778,-0.08430182747945,0.0372711667329909,0.4017649150618003,-0.1235380739395745,9.923514538142186
1520530731.623246,-0.0454578323451803,-0.0881144559924485,0.0448376208098676,0.4005623473488463,-0.1679061759458862,9.838733000092857
1520530731.628262,-0.058270916729681,-0.0901788365549553,0.0521506012888711,0.4390445141633727,-0.1906928411095976,9.777949170113562
1520530731.633277,-0.0678063822420772,-0.0846673963479407,0.0600564063751992,0.4438547850151885,-0.1990871987133462,9.81161270993496
1520530731.638294,-0.0725622028488719,-0.077121678105262,0.0706743642755517,0.4546778944317741,-0.2014863224998532,9.790591111929675
1520530731.643309,-0.0758015232509031,-0.0646283880449643,0.0837622273496502,0.4017649150618003,-0.202681341884824,9.658622892970705
1520530731.648325,-0.082819382227326,-0.0562043033028074,0.0924972337440647,0.3356236908493329,-0.2134684543974871,9.652304331402082
1520530731.653341,-0.0890872494173839,-0.0465961743081587,0.0944760849123727,0.3452442325529645,-0.2194649057942682,9.73356661444226
1520530731.658357,-0.0951108157271265,-0.0431113925175259,0.0980310599413155,0.3789161285156752,-0.2134718261562125,9.741368033845609
1520530731.663372,-0.0986086367204394,-0.0308870040769608,0.1027302438804376,0.3512570711177343,-0.1655040550405121,9.707888301901072
1520530731.668389,-0.1076407439763769,-0.0201093209666244,0.1028293000746599,0.2730901697757275,-0.1786885118003549,9.714472713071622
1520530731.673404,-0.1141596002775229,-0.0096242231213676,0.1037331036385631,0.2225823258316615,-0.1630957525774746,9.710300548214402
1520530731.678419,-0.1214355168292082,-7.018345004182469e-06,0.1021967250532404,0.1636565078969178,-0.2014636567884212,9.722532954377472
1520530731.683436,-0.1272008686728832,0.0116504688556595,0.1006731077254569,0.140807721350793,-0.2722111622304534,9.72514862937374
1520530731.688452,-0.1324656026680095,0.0218512303309422,0.0991374415245828,0.1480231276285166,-0.3033893751989756,9.757648832573809
1520530731.693467,-0.1392474092498062,0.0265209225029523,0.0953979698752447,0.0782742002771874,-0.3057822237678548,9.78505937547207
1520530731.698483,-0.142257710463685,0.0323561727551236,0.0922014815098775,0.0746664971383257,-0.3177733470220898,9.76767402472056
1520530731.703499,-0.1445163184740016,0.0352720456524486,0.0911457292888103,0.1155537993787598,-0.3069842676501702,9.773076248519915
1520530731.708514,-0.1430057145761598,0.0355560081712457,0.0941211568894055,0.0734639294253716,-0.3225698150557766,9.7746632708593
1520530731.71353,-0.1402331671741044,0.0375785720965592,0.1008952319281189,0.0049175697869963,-0.3177679147441432,9.835757267337994
1520530731.718547,-0.1362087007497324,0.0363971269304272,0.107371973516169,-0.0504005450088853,-0.3213610276560105,9.919973572655126
1520530731.723563,-0.1309317860430994,0.0328880115479317,0.1127464132217809,-0.1369854203415699,-0.3285491266790369,9.91849906484488
1520530731.728578,-0.1226365998978506,0.0320054521018437,0.1170530764323182,-0.2055317799799449,-0.3633188603400282,9.880849413410187
1520530731.733594,-0.1128320329982373,0.033752500014252,0.1189420340079029,-0.2151523216835766,-0.3920974812222203,9.787999601666058
1520530731.73861,-0.101525436132996,0.0314214837088777,0.1205265221536241,-0.2416088113685635,-0.4748361099184873,9.76858135009394
1520530731.743626,-0.0919763903456341,0.0305481577133117,0.1215843009969901,-0.2921166553126295,-0.5323909165237921,9.720319044670626
1520530731.748641,-0.0799240710312842,0.0256102730813505,0.1174659173911852,-0.3570553118121429,-0.5647626503178516,9.647767620761584
1520530731.753657,-0.0671117393808032,0.0253355646837683,0.1131111570846186,-0.3955374786266692,-0.6079287084418478,9.53313202731252
1520530731.758673,-0.0540432201279763,0.0306060019331064,0.1055516179248479,-0.4496530257095972,-0.6738772170311489,9.451210847760876
1520530731.763688,-0.0392134057878269,0.0387968010927076,0.0958466753880641,-0.5230096561997881,-0.727832822826888,9.425248165522074
1520530731.768705,-0.025637490279622,0.0487346867072899,0.0864279508753956,-0.5410481718940974,-0.8153686688365585,9.37669905705649
1520530731.77372,-0.0148266459509795,0.0610156772884773,0.0721623188749662,-0.4809197862463998,-0.8729320921586063,9.33898132598415
1520530731.778736,-0.0002415245209398,0.0765019176408762,0.0584552317556749,-0.4941480310888932,-0.8813250448628855,9.37398258560616
1520530731.783751,0.0105698529997781,0.0911227256132204,0.0409608336869074,-0.4965531665148013,-0.8441515044171575,9.437887663684323
1520530731.788767,0.021626989814757,0.1031277271750806,0.0210110480639712,-0.4688941091168601,-0.8153742884344342,9.477103277687975
1520530731.793785,0.030162603596469,0.1090133975394411,0.0007486989863456,-0.3354090929789717,-0.7410379784389063,9.55475730627808
1520530731.7988,0.0374359994136675,0.1090636007695573,-0.0168503192221027,-0.2067343476928989,-0.7626325276765498,9.658118869226684
1520530731.803816,0.0424421152480174,0.1038628973910517,-0.0325913311853732,-0.2019240768410832,-0.6750956514072683,9.76490393102391
1520530731.808832,0.0441750971573323,0.093413078874961,-0.0472841076980841,-0.1754675871560962,-0.5791664780534598,9.870307972476496
1520530731.813846,0.0408876459518364,0.0870406746301371,-0.0619364265510344,-0.1586316391747408,-0.5252064702393849,9.908442231909529
1520530731.818863,0.0381045134823697,0.083882438269432,-0.0798117756629367,-0.1273648786379382,-0.5120183607409229,9.933692204703515
1520530731.823878,0.0365818778995643,0.0833456980699358,-0.0971283588316068,-0.1369854203415699,-0.5096193306143805,9.89310846807876
1520530731.828894,0.0335559342892975,0.0851350727691257,-0.1128010816027649,-0.129770014063846,-0.5491915265467927,9.85356393149199
1520530731.833911,0.0312786926071696,0.0819661068534869,-0.1266191757226913,-0.0732493315550104,-0.574377877456799,9.782147568756832
1520530731.838926,0.0292510717982403,0.0752904270309258,-0.1366767710469869,-0.0985032535270433,-0.6151466849935798,9.709218063360469
1520530731.843943,0.0267209435071904,0.0694923460344991,-0.1480794931483172,-0.1959112382763135,-0.6918840856348716,9.646323093160929
1520530731.848959,0.025703097069872,0.0674850399193334,-0.1602677531679544,-0.3414219315437414,-0.8633498333271961,9.6293123172337
1520530731.853974,0.0272023357728445,0.0704409964963774,-0.1756694387208567,-0.3919297754878073,-0.9700693972924286,9.66128588756074
1520530731.858989,0.0266908741251088,0.072519098122938,-0.1899918761599123,-0.298129493877399,-0.97127584319308,9.709184108575943
1520530731.864005,0.0261802827808874,0.071667328993078,-0.1983845347422366,-0.3342065252660178,-0.9688747525473164,9.732775800674617
1520530731.869022,0.0291831195686663,0.0658568453972121,-0.2043866068375113,-0.2752807073312742,-0.9101214611383508,9.76700927391307
1520530731.874038,0.0299194291076163,0.0571345441528134,-0.211488892860045,-0.3269911189882939,-0.9065200124896348,9.798886970085563
1520530731.879053,0.0298960870146602,0.0472602496229065,-0.2237390430761264,-0.3931323432007612,-0.9364933717769036,9.88207220241981
1520530731.884068,0.0266029198543551,0.0379798275536961,-0.2405779599493824,-0.3991451817655311,-1.0324241373501104,9.977520079087885
1520530731.889085,0.0215478499671198,0.028415344510147,-0.2603918376999624,-0.4448427548577813,-1.076788773937732,9.997764584006044
1520530731.8941,0.0154908387028607,0.0205958610839172,-0.2791083264619945,-0.4231965360246099,-1.0911801448980494,10.069620850222952
1520530731.899116,0.0064200448791864,0.0139400058692911,-0.2975397763076313,-0.4268042391634719,-1.069595336296724,10.134714978722007
1520530731.904132,-0.0021540044712698,0.0023278968774979,-0.3149277684664687,-0.470096676829814,-1.0851807900423656,10.116557258896094
1520530731.909149,-0.0127279299024239,-0.0017097304800813,-0.3319836807251851,-0.4749069476816301,-1.0576001856640114,10.016632804256211
1520530731.914164,-0.0243005427712715,-0.0022569647808551,-0.3468466818998914,-0.4412350517189194,-1.0384165613684138,9.90123410178059
1520530731.91918,-0.0346017992257469,0.0050498352426991,-0.3565116213654719,-0.4676915414039062,-1.03721536042578,9.749249585680014
1520530731.924196,-0.0443938168453662,0.0164325734040982,-0.3647936416037546,-0.5157942499220642,-1.0815798096934723,9.611465922937226
1520530731.929211,-0.0509158211812618,0.0319039876113855,-0.3760266109051439,-0.527819927051604,-1.0911719964811295,9.526755819557492
1520530731.934228,-0.0604562263216612,0.0456273700505509,-0.3878084098309373,-0.4640838382650445,-1.0947743817294917,9.472680337690567
1520530731.939243,-0.0689908716280616,0.0570076867653872,-0.3950105801019717,-0.2596473270628727,-0.9904650870865528,9.49731805653042
1520530731.944258,-0.0757659978433475,0.0639968002586555,-0.3944035327344135,0.2646721957850499,-0.6331620766540811,9.608080584254072
1520530731.949275,-0.0790460318083162,0.0400378871646297,-0.370771719487964,0.9597563338724336,-0.0876073194607605,9.878535417339451
1520530731.95429,-0.0745648328573477,-0.0192381466818749,-0.3241564209378797,1.5333811329514682,0.4195844038397721,10.110696985536428
1520530731.959307,-0.0698441904737518,-0.0948658518614266,-0.2649504247810457,1.7474381858572714,0.8188814933625602,10.332517878686698
1520530731.964321,-0.0643579570293656,-0.1649707958460768,-0.2005632181510201,1.758261295273857,1.0467173308713242,10.377513972935969
1520530731.969338,-0.0523053047986658,-0.2094240572741908,-0.1386979737778174,1.7137662898945607,1.1786262428654302,10.269739044963895
1520530731.974355,-0.0357021090308321,-0.2267447344973323,-0.088538402909361,1.558635054923501,1.2302013632076163,10.211929373989976
1520530731.979371,-0.0178190886895142,-0.2221899553948322,-0.046060265240178,1.3229317831845266,1.2254231588670257,10.006204474601304
1520530731.984386,0.0003375063211761,-0.1960493130229468,-0.0120755546501961,1.1726108190652829,1.1366984750300475,9.847378272076826
1520530731.989402,0.0252827882929418,-0.1631859574470044,0.0151840379760496,1.069189995751243,1.010796785328651,9.605619601118908
1520530731.994416,0.0469604406167997,-0.1297360137210434,0.0405603229041332,1.0066564746776376,0.937654089818625,9.368060083132384
1520530731.999433,0.0723995659624161,-0.1029900794450327,0.0672312055005327,0.8647534845490714,0.8777081205238036,9.31487898090487
1520530732.0044491,0.0932878655778156,-0.0940094470676214,0.0897166924734125,0.8623483491231635,0.7781796527004645,9.288270135228403
1520530732.009465,0.1164296256984987,-0.0917326864423427,0.1132290315583349,0.8214610468827291,0.618697160825349,9.356227978611813
1520530732.01448,0.1375471365190774,-0.0996551719166486,0.1366672964435923,0.7998148280495581,0.5263650341019206,9.43555449763661
1520530732.019497,0.1576667557579448,-0.1020410167634885,0.1598791209469159,0.6987991401614262,0.4244459655488525,9.556337943497208
1520530732.024513,0.1752678119133993,-0.103823952610193,0.1752542278724362,0.5172114155053795,0.3057452062856322,9.744164204278356
1520530732.029529,0.1916215712237567,-0.0980277408696518,0.1893367391528562,0.4125880244783858,0.1642547847398331,9.86734564141191
1520530732.034544,0.2072267266462939,-0.0834684357449148,0.1953709662853407,0.2466336800907407,0.0047820335010354,9.934196522755212
1520530732.03956,0.2157976397583937,-0.0624795748428671,0.1933507926691963,0.1432128567767008,-0.1067299711194063,10.01666198295343
1520530732.044575,0.2215941550246977,-0.0458487246708829,0.1861620347072691,-0.0299568938886682,-0.2470159136238107,10.114942271971213
1520530732.049591,0.2261204938981444,-0.0391247122734976,0.1786294795652714,-0.0900852795363658,-0.3885098005882996,10.13658409799993
1520530732.054607,0.2263699148900542,-0.0353133051689785,0.1700004442821853,-0.0888827118234119,-0.5276101833641572,10.14600518793022
1520530732.059622,0.2256080757029691,-0.0335310571116593,0.1572995258564988,-0.1634419100265567,-0.5923579593106474,10.145631901793912
1520530732.064638,0.2190613962939284,-0.0337834809121709,0.1418883215098734,-0.2476216499333334,-0.6379187392028149,10.209251464163072
1520530732.069655,0.2079836382647269,-0.0398660958893585,0.1267116023718411,-0.3101551710069388,-0.7218536985235569,10.24480629947129
1520530732.074671,0.1958987992177307,-0.0450647530718848,0.1077557768402057,-0.3919297754878073,-0.7794060699697822,10.394412797732306
1520530732.079686,0.1802976740613298,-0.0467587047005985,0.0853160658113678,-0.4256016714505179,-0.7901957113014892,10.365697464510014
1520530732.084702,0.1626896788075888,-0.0455381418385811,0.0623612276299938,-0.4292093745893799,-0.7913945707450087,10.304140119444927
1520530732.089718,0.1443354788988886,-0.0414164123984126,0.0440293007018507,-0.3426244992566953,-0.7362408547854673,10.326486444861134
1520530732.094733,0.1224654711545033,-0.0355477541720703,0.0257172464113636,-0.2548370562110569,-0.7026717601073225,10.205898406958456
1520530732.09975,0.1026043956288802,-0.0331858490949264,0.0114329697495093,-0.1658470454524645,-0.6691027590891421,10.242188097818932
1520530732.104765,0.0804801722275151,-0.0343323709111893,0.0011844050119004,-0.0900852795363658,-0.599558515108965,10.299490055298552
1520530732.109782,0.0550747271068834,-0.0439208543371065,-0.0126396584438754,0.0806793357030952,-0.5000431596806691,10.25589369977641
1520530732.114796,0.0339365124973301,-0.0608090311156968,-0.020304677722275,0.1732770496005495,-0.3429629760308569,10.231596347905496
1520530732.119814,0.0165756877662231,-0.0762584760635282,-0.0206608432338632,0.2310002998223392,-0.2062654634400902,10.14025397209348
1520530732.12483,0.0009779144579917,-0.088793386549639,-0.0209980449552549,0.2742927374886814,-0.1079393204789601,10.04908947581457
1520530732.129845,-0.0110851428824433,-0.0928935212812319,-0.0150547557227386,0.2875209823311748,-0.0180048189826053,9.986117246222324
1520530732.13486,-0.017106388338988,-0.0917580264856374,-0.0047539179787417,0.2971415240348065,0.0539428571424501,9.81744257205416
1520530732.139877,-0.0193543211058372,-0.0868286854157032,0.0039455436498025,0.2754953052016353,0.0875204748773733,9.732784012912846
1520530732.144892,-0.0200913402568442,-0.080738314520822,0.0145449185512659,0.2875209823311748,0.0671341510797084,9.693173946672378
1520530732.149909,-0.0208323190271074,-0.0775617888988697,0.0251220625996334,0.2947363886088987,0.0371550785345991,9.618755736745038
1520530732.154924,-0.0190616698801131,-0.0740870667456653,0.0335323953333874,0.2694824666368656,-0.0048128694255947,9.558610984184336
1520530732.15994,-0.0147774992501584,-0.0682715426458872,0.0387092947660901,0.2839132791923129,-0.0527796102816848,9.516680114725318
1520530732.164954,-0.0130083398426793,-0.0636210843485619,0.0433408772984652,0.2406208415259707,-0.1463091915491633,9.481166242637348
1520530732.169971,-0.0102209105110387,-0.0464275857962551,0.0431963594798451,0.1756821850264573,-0.2422353677841049,9.441216824426672
1520530732.174988,-0.0071819118221409,-0.0266006015767535,0.0390131942672215,0.1011229868233125,-0.3873255520992573,9.396760413759765
1520530732.180004,-0.0043894604192241,-0.0032771014852789,0.0348571728015843,0.0001072989351806,-0.4628635313372422,9.335061533344469
1520530732.185019,-0.0038594433478613,0.0206333805783809,0.0288159767446995,-0.0528056804347931,-0.5683837675591328,9.342652321406511
1520530732.190035,-0.0030827417603674,0.0430957796339317,0.0195166477871806,-0.1189469046472606,-0.651119305476568,9.410781133262892
1520530732.19505,-0.0043148469578789,0.0667229291543206,0.0102299449570707,-0.1237571754990765,-0.6319326840621038,9.424754971511232
1520530732.200067,-0.0088221050798849,0.0854003608061631,-0.0009823041920836,-0.1562265037488328,-0.6139430488918667,9.432026331671311
1520530732.205082,-0.0130786798766722,0.1037872348173223,-0.0124677890457201,-0.2103420508317608,-0.5995491491125055,9.487159792987796
1520530732.210098,-0.0190897242998593,0.1265485581354898,-0.0255399359322209,-0.2367985405167476,-0.5587763141972467,9.516431145550165
1520530732.215113,-0.0256001163740242,0.1495915994659854,-0.0350918296401535,-0.2139497539706227,-0.5264013023044265,9.552203639899115
1520530732.220131,-0.0311127932864593,0.1668058872106543,-0.0441489601555607,-0.1345802849156618,-0.4376710925295373,9.576911742063324
1520530732.225146,-0.038383166371186,0.1805024753691182,-0.0456542155465491,-0.0792621701197799,-0.3465407287085305,9.64368878902945
1520530732.230162,-0.0433934926923056,0.1874733388434153,-0.0380162419484581,0.0061201374999504,-0.2446204425759227,9.704351965760576
1520530732.235178,-0.0509196770781077,0.1885987733018783,-0.0241955072181173,0.1347948827860232,-0.1918682855619681,9.740236680330993
1520530732.240194,-0.0546869014438548,0.1792234582827697,-0.0058625241776705,0.1961258361466746,-0.0803530028427654,9.783692444163355
1520530732.245208,-0.0559445757422909,0.1648846643890818,0.0164861876183185,0.263469628072096,-0.0084098223960104,9.878262604894472
1520530732.250225,-0.0584535183014732,0.1508207372614866,0.0447914658258009,0.3235980137197934,0.0587373583168805,9.893881884434244
1520530732.255241,-0.0584511857833611,0.1364707807484221,0.0714665783398531,0.333218555423425,0.1318841748653489,9.913473361510327
1520530732.260257,-0.0561984584829208,0.1183541075503238,0.0905333051502043,0.3524596388306883,0.1270861146122638,9.995802978714066
1520530732.265272,-0.053941109005261,0.1046125728480257,0.1080101028647918,0.2682798989239117,0.0875210368371608,10.073362421837606
1520530732.270289,-0.051692062931646,0.0891423986208011,0.1181688228781886,0.1143512316658059,-0.0791474935417601,10.001808138100069
1520530732.2753031,-0.0439281483268068,0.071378278888405,0.1153132872938805,0.1444154244896547,-0.14390341790517,9.92022857921356
1520530732.280319,-0.0336419618868122,0.0606091007975229,0.1122358926283881,0.0686536585735557,-0.1846682917234381,9.97795080905964
1520530732.285337,-0.017325658136452,0.0495530864055517,0.1083334358313706,-0.054008248147747,-0.272195989316189,9.845583531845143
1520530732.290351,-0.0057902342315639,0.0344180032693915,0.1035970858944704,-0.0071081073425429,-0.3117712760274329,9.801004152579434
1520530732.295366,0.0125429249082018,0.0271464047901546,0.1013430707957144,-0.0443877064441156,-0.3129675129919433,9.718855957918342
1520530732.300383,0.0321307316818007,0.0190033302999507,0.0982684151369693,-0.0912878472493197,-0.3141630006767369,9.680962873968983
1520530732.305399,0.0492050287688324,0.0129098894113974,0.0911557998695861,-0.2235702956742542,-0.291369030035787,9.665958197371063
1520530732.310415,0.0682909514284426,0.0088620268757024,0.0821611911418909,-0.2933192230255834,-0.3585154614689613,9.592325360571746
1520530732.31543,0.082356186173597,0.0121121054639199,0.0675500301984358,-0.3582578795250966,-0.3860906335693692,9.586011464696192
1520530732.320448,0.0939133214011241,0.0209062466880992,0.0497392243577614,-0.5109839790702486,-0.4688194279693537,9.58293011545368
1520530732.325463,0.1077215923486057,0.0238823246391096,0.0286332055506385,-0.470096676829814,-0.5359744761192707,9.660461271465849
1520530732.330478,0.1142424167944655,0.0268548189483433,0.0078112676142851,-0.4725018122557221,-0.5899356078529207,9.717482355601671
1520530732.335494,0.1220208291633573,0.0283606848638717,-0.0092364768223554,-0.5025660050795708,-0.6522885683712751,9.80151015235709
1520530732.34051,0.1265210071562748,0.0220000739136537,-0.0271498148475314,-0.424399103737564,-0.633108409494368,9.880918547102508
1520530732.345524,0.1335423043562714,0.018540452601493,-0.0399052172302014,-0.3462322023955573,-0.6127291101940477,9.910353582477253
1520530732.350542,0.1350260926798828,0.0072054555819648,-0.0505460078370513,-0.2632550302017347,-0.4976180920839691,9.967540874726827
1520530732.355557,0.1365123822088047,-0.0047232369581661,-0.0571330561760019,-0.1574290714617869,-0.4208813470624298,9.976895287637308
1520530732.360573,0.1405189519668608,-0.0155043460414717,-0.0566816861129953,0.0001072989351806,-0.3309580847618264,9.943896338037822
1520530732.365588,0.1437693788319856,-0.0289125818234452,-0.0546256482725537,0.110743528526944,-0.2734079611547514,9.910223313844485
1520530732.370605,0.1462686809433243,-0.0402814212809936,-0.0525526486651309,0.2358105706741549,-0.1978718551160584,9.815960803265892
1520530732.37562,0.1485225726682341,-0.0499137069274112,-0.0461371094881596,0.3175851751550236,-0.1043452709674468,9.745345013714283
1520530732.380637,0.1510288178099902,-0.0592566948841976,-0.0389081762614464,0.3380288262752409,-0.0048182080435767,9.692752494657457
1520530732.385653,0.1527807744346864,-0.0674278842188273,-0.0341038635867919,0.4149931599042937,0.0587302401595712,9.596645591819977
1520530732.390668,0.1540298276153363,-0.0750128592546155,-0.0306469007744818,0.3644853159602277,0.0347513654098268,9.577404143753146
1520530732.395683,0.1537744319368417,-0.0799752358469499,-0.0274376757506586,0.3356236908493329,0.0587364217172345,9.510257328977676
1520530732.4007,0.1537686218738453,-0.0852245279246288,-0.0258544159108238,0.3392313939881948,0.0743249662417081,9.482315557496891
1520530732.405717,0.152760298051918,-0.0893123178706419,-0.0229076673571592,0.357269909682504,0.0491416124505689,9.438003067514414
1520530732.410732,0.1525025736559634,-0.0948523645000875,-0.0215967097752639,0.3284082845716092,0.0491438602897191,9.433635413051768
1520530732.415746,0.1535015590152642,-0.1018561257989672,-0.0175937422772608,0.3644853159602277,0.0287556632927625,9.441439147805756
1520530732.420764,0.1547543091512636,-0.1062336857413302,-0.0149239632142489,0.35606734196955,0.0527391273807721,9.441497696415746
1520530732.425779,0.1570199503680539,-0.1062459114006756,-0.0100583375974686,0.2466336800907407,0.0851244418696978,9.409991253672665
1520530732.430795,0.1592999755800543,-0.0966468182457624,-0.0034960747900645,0.1432128567767008,0.159479202878251,9.358628911551982
1520530732.435811,0.159320957629981,-0.082666916815314,-0.0009544536320932,0.089097309693773,0.1091195197933171,9.299935409674475
1520530732.440827,0.1621162552139091,-0.0622798433598703,0.0032542168221118,0.0506151428792465,0.0023990192284387,9.25857686032145
1520530732.445842,0.1649061034390659,-0.0436308790332346,0.0036619062218421,-0.0564133835736551,-0.0875281767906776,9.427055040194666
1520530732.450859,0.1639116030268347,-0.0343004121024186,0.0012999987817231,-0.2055317799799449,-0.2410065371519153,9.661084933459309
1520530732.455873,0.1633998198647054,-0.037489813330232,-0.0046755314199668,-0.3221808481364783,-0.358513213629811,9.91452015724467
1520530732.46089,0.1563456932140621,-0.0450438011387089,-0.0139188238470609,-0.3690809889416824,-0.459237356457873,10.156800821419846
1520530732.465904,0.1457634917723017,-0.056956823474942,-0.0280587545542226,-0.3726886920805443,-0.4808216030994108,10.273071380117532
1520530732.470922,0.1326679962537871,-0.0682844191566673,-0.0435423013375581,-0.3342065252660178,-0.4220667194710472,10.386529628202128
1520530732.4759371,0.1155552831271874,-0.0769911293814234,-0.0589983727807662,-0.1826829934338198,-0.3345412697174466,10.391942293052503
1520530732.480954,0.0954352913877018,-0.0825069030316784,-0.0695545634800907,0.0421971688885689,-0.1750731078169141,10.379138629792614
1520530732.485969,0.0780893407219178,-0.085712370384666,-0.0719817265758862,0.1901129975819047,-0.0203955133722988,10.35779161586725
1520530732.490987,0.0549584008076353,-0.0973913780075725,-0.0666167935292835,0.3103697688772999,0.0815220566213356,10.380926739427
1520530732.496,0.0335921745435938,-0.1085029528705932,-0.0552986716651338,0.4679061392742675,0.1582547742643974,10.382804971185838
1520530732.501017,0.0114754311653739,-0.120211432345113,-0.0388432237796659,0.5184139832183335,0.1570517001224715,10.274235140412806
1520530732.506032,-0.0048674726808824,-0.1386296895048599,-0.0186619989489417,0.5015780352369782,0.1618495730556274,10.16282851424074
1520530732.5110471,-0.0176928084237699,-0.1573372243832483,0.0012399227747732,0.4847420872556228,0.1858336927633891,10.095564648901004
1520530732.516063,-0.0275037029814098,-0.1772105727664437,0.0216684432697964,0.3885366702193067,0.1522652537049963,10.05469661256221
1520530732.52108,-0.031528471390999,-0.1903703429405625,0.0386202634449837,0.381321263941583,0.0755208285663602,9.986275187313815
1520530732.526095,-0.0358062949652296,-0.2035243841216805,0.0534081831762325,0.2971415240348065,0.0383540316380828,9.938320744703196
1520530732.531111,-0.037322728586723,-0.21637503129853,0.0641350035982879,0.1636565078969178,0.0395635683175657,9.933808116856166
1520530732.536127,-0.0353225977063807,-0.2271700397853896,0.0694599335736872,0.0674510908606018,0.0011985675655215,9.917349780912971
1520530732.541143,-0.033315464945134,-0.230378124096617,0.0707844753286173,-0.0528056804347931,-0.0251731557531021,9.896465276888929
1520530732.546158,-0.0295429912333834,-0.2283376840035093,0.0710635819726158,-0.1033135243788592,-0.0611434347369753,9.853992643130214
1520530732.551175,-0.0252634741062177,-0.2222140214618788,0.0700201488848998,-0.0467928418700234,-0.0383641687104667,9.832501696856491
1520530732.55619,-0.021485986187453,-0.2169705368617528,0.0711353471550075,0.0205509500553977,-0.0239797285875295,9.831832181625623
1520530732.561206,-0.01569546920052,-0.2102715272740323,0.0730695647531963,0.0674510908606018,-0.0131911175154329,9.841824455959724
1520530732.566222,-0.013176549345013,-0.2088267318413715,0.0779458390732532,0.0253612209072136,-0.0095904181464335,9.914283550078482
1520530732.571238,-0.0089036420689571,-0.2114620874641551,0.0833288149278791,0.0542228460181084,-0.0155883681026481,9.871009149114393
1520530732.576254,-0.0063862198172274,-0.2117685129195228,0.0892739343196834,0.0590331168699242,-0.0395715512107639,9.865174995902583
1520530732.58127,-0.0038614075869298,-0.207123586704115,0.0960684838494544,0.0915024451196808,-0.0515654842639367,9.862546364863134
1520530732.586285,-0.0043494095722148,-0.200440150264157,0.1028841956556484,-0.0516031127218392,-0.1163079215924449,9.851218827400931
1520530732.591301,-0.0040852204195624,-0.1911164753663107,0.1032254135581851,-0.0924904149622736,-0.1007159116492814,9.845790878138082
1520530732.596316,-0.0035594295634935,-0.1712897472711581,0.0987763696823734,-0.0479954095829773,-0.1402910110405961,9.80936991666476
1520530732.601334,-0.005550049493359,-0.1505745530971197,0.0886571984812779,0.0049175697869963,-0.2062478553667462,9.850756390192622
1520530732.606349,-0.0067788145076151,-0.1257876929161017,0.0815437551596162,0.0626408200087862,-0.2218411765494141,9.843236885169093
1520530732.611365,-0.0087604174892476,-0.0992484503515446,0.0728217751442186,0.1059332576751284,-0.3057843779470404,9.82197876570928
1520530732.61638,-0.0167815898812358,-0.0767814844982068,0.0605627766462824,0.1516308307673783,-0.3477578518451456,9.823899188347257
1520530732.621396,-0.0207777547925144,-0.0502291893876948,0.046704158394932,0.2382157061000629,-0.3717474038308538,9.75451331777063
1520530732.626412,-0.0207509822087677,-0.0219262833936907,0.0325808651871966,0.3019517948866224,-0.3777480699260417,9.71089947017018
1520530732.631428,-0.019970273947924,0.0046205980614351,0.0214188381527034,0.4137905921913397,-0.3957438866539421,9.65869410602564
1520530732.636444,-0.0166835282908751,0.0262156555390665,0.0099438055393327,0.4919574935333466,-0.3981482553984665,9.680016351166596
1520530732.64146,-0.0156616868451211,0.0443081135718334,0.0003401176829975,0.5388576343385506,-0.3669742571283512,9.749258088398625
1520530732.646475,-0.0151492214643732,0.0562762006028916,-0.0074155002469876,0.5593012854587678,-0.3801663940052908,9.724666942132522
1520530732.651492,-0.0161551498540916,0.0612541104010094,-0.0165744013642813,0.6567092702080378,-0.352593750723927,9.703935490537528
1520530732.656508,-0.0138979805970654,0.0621480892905262,-0.0236061259112264,0.6843683276059787,-0.3334096581285067,9.673431822002032
1520530732.661524,-0.0106359767279104,0.0595312790533389,-0.0252554764569473,0.7180402235686894,-0.327416578490451,9.639396059053492
1520530732.666538,-0.0083857662298259,0.052545492377795,-0.0277479440769304,0.7625352289479855,-0.3070346567111223,9.60756520643456
1520530732.671555,-0.0073911717094073,0.0455562997002714,-0.0291558944969519,0.8310815885863607,-0.3070399953291042,9.619681601714673
1520530732.67657,-0.0046399121431478,0.0341853734050613,-0.0262717239250968,0.8563355105583937,-0.3118385238820121,9.676385526643456
1520530732.681586,-0.0064112395766297,0.0233954439646867,-0.0233747061637388,0.8226636145956832,-0.2830565312410946,9.758035280876738
1520530732.686602,-0.0076845013530979,0.009108368676813,-0.0202347529767372,0.7372813069759526,-0.2614653537621766,9.806493193899492
1520530732.691618,-0.0119688562672962,7.377458652491065e-05,-0.0202957343257219,0.6314553482360049,-0.2422708649106864,9.881881742507034
1520530732.696633,-0.0164943522306668,-0.0034333531135537,-0.0170674595797384,0.6134168325416955,-0.163126192065968,9.9214930364064
1520530732.70165,-0.0197561013001772,-0.0040370697290121,-0.0097610991584972,0.6591144056339459,-0.1259563980188235,9.929147002424996
1520530732.706666,-0.0247689327587384,0.0020640107498131,-0.0037530701917423,0.5929731814214785,-0.0791847702076689,9.899529433488008
1520530732.7116811,-0.0275049929446292,0.0160187909440654,0.0077216994869541,0.5087934415147018,-0.0515979842716512,9.874754725642282
1520530732.716697,-0.0279776935770961,0.0305543125685075,0.0202788984104328,0.3969546442099844,-0.0383987292374022,9.83399325080629
1520530732.721713,-0.0266865979169299,0.0474165005826097,0.0347444362247976,0.3741058576638594,-0.0743711624004611,9.8354128710101
1520530732.72673,-0.0286702592193326,0.0596203552554586,0.0472866508054276,0.3704981545249975,-0.0887605665015218,9.826164866616622
1520530732.731746,-0.0314109807722746,0.0709563168594139,0.0573886832368316,0.3524596388306883,-0.1175385317639617,9.83450351428454
1520530732.736761,-0.0336496770489467,0.0817089778887991,0.0677558819469751,0.2791030083404973,-0.1523078907850946,9.80154925889243
1520530732.741777,-0.0303542516865827,0.0980066668382764,0.0757201383029205,0.2502413832296024,-0.183483293954679,9.72748336999713
1520530732.746792,-0.0308396975482013,0.108194001916427,0.0798570681738172,0.2189746226927997,-0.2410395991194174,9.730168117656635
1520530732.751808,-0.0283086322388881,0.1195502418634529,0.0831856520189927,0.2803055760534512,-0.2218581290030058,9.666796676823068
1520530732.756824,-0.0245313638620675,0.1247944548946467,0.0840303043931992,0.3211928782938855,-0.2518398240271238,9.666427938385816
1520530732.76184,-0.0222640878113499,0.1285818829871938,0.0845960957845844,0.3175851751550236,-0.2818180536325518,9.736220924289483
1520530732.766855,-0.0200065304566602,0.1268402893718541,0.0824141895960751,0.3753084253768133,-0.2686320046533108,9.742619082574592
1520530732.771872,-0.0210157677040645,0.1259752115716901,0.0788922905865156,0.3500545034047803,-0.251842071866274,9.78003712454506
1520530732.776888,-0.0220279531049295,0.1227783291221153,0.0756231527903807,0.3620801805343199,-0.2722283956639388,9.80434497578664
1520530732.781903,-0.0220206454381559,0.1297788420878227,0.0729710478787984,0.1768847527394113,-0.2614217082186753,9.725949097581925
1520530732.78692,-0.0207736857044978,0.1274693826481544,0.0651050985988294,0.2334054352482473,-0.2566295485433598,9.585937008066596
1520530732.791935,-0.0170136945579922,0.1248680663744744,0.05777335079264,0.2839132791923129,-0.2770188694598917,9.5529252437458
1520530732.79695,-0.0114957994936441,0.1213932857077075,0.0504316666676227,0.3488519356918264,-0.2482445569360708,9.502292916525366
1520530732.801966,-0.0034470076757022,0.1319095890617552,0.0418392939252461,0.1828975913041812,-0.2302445255097638,9.466702067688438
1520530732.806982,0.0048340415411979,0.1316593319828637,0.0277532823851188,0.1215666379435296,-0.2566208381666525,9.395271825868084
1520530732.811998,0.0093549389201353,0.1395721922835904,0.01157215091552,0.1768847527394113,-0.2914002188039972,9.498198116036216
1520530732.817013,0.0186497142636406,0.1439771971528739,0.0002253008062732,0.1420102890637467,-0.2626181325031149,9.478753051308862
1520530732.82203,0.0236623261802576,0.1378768451051164,-0.0060532740563828,0.2177720549798458,-0.2422386458828657,9.50937364075068
1520530732.827046,0.0289294398790685,0.1308878693096658,-0.0069280669802143,0.2225823258316615,-0.1702905951179518,9.666146093989576
1520530732.832062,0.0266583727648142,0.1215517518704011,-0.0029368167621608,0.3512570711177343,-0.1319281231849516,9.72180128785271
1520530732.837077,0.0231447485521772,0.1189009607976727,0.0070599077441969,0.2646721957850499,-0.1115359924694818,9.830703560890536
1520530732.842093,0.0251557389602306,0.1133384904739324,0.0170241334854898,0.2502413832296024,-0.0959460430455395,9.78434306198864
1520530732.847108,0.0244033204160871,0.1077720234149624,0.0280756767663721,0.25865935722028,-0.1547045794125224,9.858695637286912
1520530732.852125,0.026152015237191,0.0949284836086972,0.0366320626186904,0.2502413832296024,-0.1966738386122205,9.837899908379692
1520530732.857141,0.0263820105019594,0.0756811777794164,0.0424368819748134,0.2766978729145894,-0.2098664437889833,9.83765525987006
1520530732.862155,0.0354204844742762,0.0648823701681137,0.0501836567617269,0.2754953052016353,-0.2050697884353672,9.829527279889954
1520530732.867172,0.0409294291736613,0.0476804657515975,0.0546415070468131,0.3272057168586553,-0.2170652200479735,9.76511773837407
1520530732.872188,0.0464447092638564,0.0351407137717675,0.0591349266968527,0.3416365294141027,-0.1738972887246853,9.702179407956134
1520530732.877205,0.0502041593540243,0.0272726230747813,0.0598795402321277,0.2863184146182209,-0.172693839942901,9.591150851607456
1520530732.882221,0.0552237182331898,0.0246616010438604,0.056333101352199,0.2141643518409839,-0.2170564160113015,9.496600616299306
1520530732.887236,0.0609944097304036,0.0229381397206637,0.0479221054321629,0.1672642110357798,-0.2746115035965003,9.413438877080136
1520530732.892252,0.0670137616212455,0.0197600395097478,0.0386878896746038,0.1432128567767008,-0.3081855622527687,9.412543575753434
1520530732.897266,0.0730319256263105,0.0157077857169531,0.029447004661116,0.1516308307673783,-0.344160430574907,9.49268465337706
1520530732.902283,0.0775366669459608,0.0081612405876649,0.0191000593799361,0.158846237045102,-0.3417627116878688,9.5228278271697
1520530732.907299,0.0825443156417884,0.0014919596756099,0.0076766663245374,0.1456179922026086,-0.3177788729600008,9.52060890809696
1520530732.912314,0.0855402485889813,-0.0081006953265209,-0.0005186730469717,0.1720744818875956,-0.3441620227943051,9.566862880487836
1520530732.917331,0.0855189215633538,-0.0197378656415414,-0.007371243856886,0.1913155652948588,-0.3405661000834999,9.639887160683072
1520530732.922346,0.0857534606256786,-0.0310973931640156,-0.0090816862826386,0.21296178412803,-0.3021952924136509,9.640801194765627
1520530732.927364,0.0839865750173037,-0.0392677755830253,-0.0050824771698894,0.2057463778503061,-0.2710170794451286,9.7384611144381
1520530732.932378,0.0812152860164261,-0.0468557827696161,-0.0010769549934356,0.21296178412803,-0.2134589010810984,9.749956195357749
1520530732.937395,0.0774407815088227,-0.0529872611419091,0.0029415495026512,0.2646721957850499,-0.2206577710000531,9.75991918955489
1520530732.94241,0.0721779684728378,-0.0468906497050323,0.0105733205680848,0.1504282630544244,-0.1738823967903148,9.741229118462922
1520530732.9474251,0.0664135731766022,-0.0387487160396462,0.0160572195100183,0.0518177105922004,-0.1367013635474189,9.772368426382837
1520530732.952441,0.0629085817466656,-0.0314764077009246,0.020177519207075,0.0590331168699242,-0.1379010659306194,9.7827586609715
1520530732.957458,0.0568962787908218,-0.0195407461877302,0.0235264178140945,0.0794767679901413,-0.1019284454476313,9.753470995979283
1520530732.962472,0.0486229881209765,-0.0079009974570428,0.0282300233247526,0.1492256953414705,-0.0863450522212105,9.685372551951604
1520530732.967489,0.0438637018971697,0.0008270128093669,0.032634317960615,0.25865935722028,-0.0719638901970342,9.692428367425354
1520530732.972504,0.0363325582227093,0.0028469969196071,0.0388864368616501,0.2574567895073261,-0.0611715327263537,9.737753162643076
1520530732.977521,0.0298064334446212,0.0045752618936534,0.0454050116801916,0.2574567895073261,-0.0371887242580963,9.779566958209973
1520530732.982537,0.021762134438011,-0.0006873787963085,0.0507908492073259,0.2598619249332341,-0.0036129797224652,9.810888693362044
1520530732.9875531,0.0117062177230846,-0.0050686408069794,0.053211084921646,0.2538490863684641,-0.0156039156567709,9.807472480174017
1520530732.992568,0.0029114604527828,-0.0053671134335702,0.0545779266303388,0.2394182738130168,-0.0072088087733056,9.8389826422403
1520530732.997583,-0.0096456519391851,-0.0004221414020142,0.055991784723674,0.2165694872668919,0.0311654643152335,9.90657196880112
1520530733.0026,-0.0221998161776923,0.0068546352789526,0.0571528816035847,0.2237848935446154,0.0551477108237032,9.933207662624609
1520530733.007616,-0.0327452167531567,0.0132595028845099,0.0577624836495935,0.2045438101373522,0.0503526476894853,9.984533954870066
1520530733.012631,-0.0463085319951429,0.0190855189864559,0.0564794189329305,0.2237848935446154,0.0359614640490973,9.94600995554901
1520530733.017648,-0.0598766458343301,0.020244283634241,0.0570546061226226,0.2971415240348065,0.0287609082507798,9.975518705952204
1520530733.022663,-0.0689164135970042,0.0234372278621485,0.0603424128496104,0.263469628072096,0.0107764243785954,9.913108214093052
1520530733.027679,-0.0792156236585816,0.0242978751629368,0.0638853144063793,0.2983440917477604,-0.0060142576881579,9.889542259121804
1520530733.032695,-0.0902695652532382,0.0248682994319427,0.0668863012558502,0.3079646334513921,-0.0120107090849391,9.842968707197876
1520530733.037711,-0.0990621741581926,0.0233919053680276,0.0728435308536256,0.2875209823311748,-0.0527798912615785,9.80485670020238
1520530733.042728,-0.1055858839748954,0.025112157600328,0.0823381105270806,0.2310002998223392,-0.057572050936894,9.7984386514861
1520530733.047742,-0.1093517635640605,0.0259768216073355,0.0853277854869927,0.1744796173135034,-0.1187238105126146,9.763021962859076
1520530733.052757,-0.1088497343556596,0.02685699954884,0.083169154129169,0.1071358253880823,-0.1151211442843586,9.685810293068515
1520530733.057775,-0.1058422322686985,0.0251288130593458,0.0761160216446236,0.0494125751662926,-0.1163157890294709,9.653833274398094
1520530733.062789,-0.1008240298310292,0.024278481520335,0.0679836410462314,0.0975152836844506,-0.0863410248427329,9.619633663987448
1520530733.067806,-0.0945502114156939,0.0234315559833038,0.0587667432478777,0.1624539401839639,-0.0731555378232794,9.623637304025555
1520530733.072822,-0.0897794344317821,0.0260806540405372,0.049579322812867,0.1540359661932864,-0.0443755120416184,9.655069062042465
1520530733.077838,-0.0809954857029666,0.0237807041467296,0.0392644587716473,0.1792898881653193,-0.0407800576306363,9.665279043427738
1520530733.082853,-0.0724581783683195,0.0226359958716026,0.0327465963375544,0.2033412424243985,-0.0060068585509549,9.77076613129491
1520530733.087869,-0.0651786001189853,0.0194460046102423,0.0281093271939597,0.2213797581187075,0.0443556343329167,9.80773004973504
1520530733.092884,-0.0596612813686754,0.0139242479417471,0.0234575404307875,0.2322028675352931,0.0503504935102996,9.843645320111747
1520530733.0979,-0.0586653656644611,0.0083941631938914,0.0212490677496102,0.2334054352482473,0.0551469615439865,9.919168294722567
1520530733.102917,-0.0609369502422668,0.0025721424277687,0.0187738934897493,0.2442285446648326,0.0107779229380289,9.935376230126035
1520530733.107932,-0.063207307744464,-0.0041320446619784,0.0192680548288731,0.2105566487021219,-0.0455790544833672,9.946218226238678
1520530733.112947,-0.0664827351292585,-0.0131786282582526,0.023804486817124,0.1841001590171351,-0.0599666790451006,9.947651913505272
1520530733.117964,-0.0730157637479324,-0.0152325346904715,0.028129794359431,0.1684667787487337,-0.1031345167084242,9.91181971287101
1520530733.12298,-0.0790417058292288,-0.013496060063596,0.0316714308765162,0.1083383931010362,-0.1391040464125805,9.879900015151676
1520530733.127996,-0.0828074050662813,-0.010875804582153,0.0319689853892735,0.1275794765082993,-0.1678849151339231,9.796066433687074
1520530733.133011,-0.0868261124138816,-0.0070791829810631,0.0282177105280221,0.0999204191103584,-0.2026578332337106,9.763829530104982
1520530733.138028,-0.0900912369243479,-0.0056228118355727,0.0279643474611959,0.0878947419808191,-0.2350336880662121,9.750032425378356
1520530733.143043,-0.0936087971634548,-0.0024065770847817,0.0233960552950789,0.0915024451196808,-0.2314365477758673,9.72094020333585
1520530733.148058,-0.0968759798632123,0.0011055112352505,0.0172062441155928,0.0987178513974045,-0.2446276543931965,9.762720018080929
1520530733.153076,-0.0971337865709611,-0.0023853740992633,0.0150156666479392,0.086692174267865,-0.2626138241447436,9.767503184550812
1520530733.158092,-0.0986447433087658,-0.0032535625347818,0.0125768846685273,0.086692174267865,-0.2266396114423575,9.775603112052856
1520530733.163105,-0.1009058172666924,-0.0029637925384318,0.01285385415918,0.1432128567767008,-0.220648311343629,9.77737141561301
1520530733.168123,-0.1061848568773655,-0.0058869896884141,0.0155468834537942,0.1311871796471613,-0.2338379194015248,9.793771344268087
1520530733.173139,-0.1061865269689932,-0.0064668450187287,0.0144602536995701,0.1047306899621745,-0.2446281226930194,9.78822865979162
1520530733.178154,-0.1092022030941112,-0.0073458222224466,0.0158119146024033,0.1624539401839639,-0.3249750267399824,9.840041640752744
1520530733.18317,-0.1164861329924962,-0.0058975822452333,0.0180009321710294,0.1901129975819047,-0.305790934144562,9.826970131530532
1520530733.1881871,-0.1202538551611394,-0.0044414080108263,0.017748502550746,0.1552385339062403,-0.3405632902845621,9.799452034103878
1520530733.193202,-0.1235159883961822,-0.0009460736053535,0.0177812469769882,0.0939075805455889,-0.3489524965902578,9.73149068405744
1520530733.198218,-0.127027260298573,0.0057616764554774,0.0151334531058949,0.0818819034160491,-0.3441549982969604,9.716495185859856
1520530733.203233,-0.1310446425302465,0.0124808845023099,0.0081578583469245,0.0433997366015228,-0.3441520011780934,9.64249253459547
1520530733.20825,-0.1307943864925228,0.0165822192719862,7.213794095047021e-05,0.0927050128326349,-0.3261687348854488,9.635022223467931
1520530733.213264,-0.132557555484893,0.0189366445267752,-0.0088348248784142,0.0854896065549111,-0.3597441047812215,9.661854506252524
1520530733.218281,-0.1320669542539792,0.0154642653355815,-0.0177904499134126,0.0746664971383257,-0.324968189562567,9.643331637654612
1520530733.223297,-0.1320761789477631,0.0140313809243546,-0.0267295799047012,0.1035281222492203,-0.2662125566544866,9.615101963775889
1520530733.228312,-0.1315846133051477,0.0099704052300327,-0.0335252839431088,0.0927050128326349,-0.2722074158318696,9.638456035064356
1520530733.233329,-0.1273285363112565,0.0024150204723891,-0.0406252117502026,0.1047306899621745,-0.2542212460803225,9.632510724640252
1520530733.238344,-0.1248255254481752,-0.0013559683435098,-0.0466107888017676,0.0999204191103584,-0.2398311863595096,9.63602994465762
1520530733.24336,-0.12131978521635,-0.0077526662382171,-0.0512655110346979,0.1119460962398979,-0.2338364208420913,9.634744903442888
1520530733.248375,-0.1165606322905621,-0.0170656308524161,-0.0548626141534759,0.1468205599155625,-0.2362374178278903,9.653002098752532
1520530733.253392,-0.1132991537492205,-0.0190953014486108,-0.0581307939039849,0.1841001590171351,-0.2242489170526639,9.694464730962707
1520530733.258408,-0.107275810913553,-0.0240428333242505,-0.0595325171922658,0.185302726730089,-0.2410369766404086,9.695631540609998
1520530733.263423,-0.1012514056258655,-0.0257742089336513,-0.0649679749806597,0.2454311123777866,-0.2326476766747484,9.684578806825964
1520530733.26844,-0.0942187275024754,-0.02605191023976,-0.0690414547560847,0.25865935722028,-0.2014710559256243,9.698365375835412
1520530733.273455,-0.0871780047068161,-0.0228439236843711,-0.0690300690692762,0.2201771904057534,-0.1463075993297652,9.740523330387456
1520530733.278471,-0.0798906444491196,-0.0222546572637375,-0.0703918873530315,0.2526465186555102,-0.0911496686718172,9.73201849657893
1520530733.283487,-0.0776213023448487,-0.017595989313583,-0.0687372431221126,0.2766978729145894,-0.0695670142496774,9.766627665970484
1520530733.288503,-0.0728360277283633,-0.0120680106746754,-0.0649162297007683,0.2213797581187075,-0.0515755995401129,9.783418573836412
1520530733.293518,-0.0657975121485383,-0.0132431753568326,-0.0603389100632827,0.1889104298689508,-0.0575687728381332,9.751200426338038
1520530733.298533,-0.0600214732650026,-0.018496758836663,-0.0563314717955771,0.2105566487021219,-0.075557565068689,9.76379085890752
1520530733.30355,-0.0550018360061739,-0.0246204206785903,-0.0539525779893938,0.1865052944430432,-0.0827505344098744,9.760545544208885
1520530733.308566,-0.0464663007356039,-0.0316132155694737,-0.0529396170444439,0.1841001590171351,-0.1271185427562214,9.733882908926937
1520530733.313581,-0.0406992317462075,-0.0415202103131767,-0.0522142988925066,0.1937207007207666,-0.1702883472788015,9.707102053741473
1520530733.318598,-0.0331672138361016,-0.0450065866637628,-0.0549604365733736,0.1492256953414705,-0.1822762860942403,9.708708978175965
1520530733.323614,-0.0243832298495856,-0.0505263349791484,-0.0598888366349741,0.1696693464616878,-0.2470314611779334,9.656276658596337
1520530733.328629,-0.0148451259017289,-0.0545830378429019,-0.0669718886070506,0.1780873204523654,-0.3117856996619805,9.66555501915459
1520530733.333646,-0.0063098846206351,-0.0565989859756364,-0.0745786038806771,0.1468205599155625,-0.3045884219624239,9.667014478540391
1520530733.338661,0.0027289226624683,-0.057739855184341,-0.0824501292408188,0.0770716325642335,-0.3429554832336893,9.641001479722068
1520530733.343677,0.011769227549349,-0.057129503505017,-0.0913904996727078,0.0446023043144769,-0.3477495161082966,9.616917170563974
1520530733.348692,0.022068131825057,-0.0574037395958804,-0.0962816845383637,0.0806793357030952,-0.3213712365921514,9.544487368246108
1520530733.353709,0.0308690441340562,-0.0541987060070388,-0.0949208364349483,0.1191615025176218,-0.324971654981257,9.522035579328051
1520530733.358724,0.0401766862083389,-0.0492509957918989,-0.0913832160990082,0.2009361069984905,-0.4029221513806861,9.568963544665277
1520530733.36374,0.0492459942246291,-0.0399559259170772,-0.0791543140913135,0.2899261177570829,-0.506055158631573,9.579819373207396
1520530733.368756,0.0630938455046693,-0.030086414367327,-0.0631421911125375,0.2273925966834773,-0.4736734968812666,9.626882222150586
1520530733.373772,0.0734180559544373,-0.0248833473561178,-0.0460769197893114,0.2478362478036946,-0.4688785274070132,9.637137854422312
1520530733.378788,0.0860002197208206,-0.0211304894329555,-0.031191331569285,0.263469628072096,-0.496459974725049,9.570770378101024
1520530733.383804,0.0975711624980406,-0.0211631104624962,-0.0174149601488029,0.2947363886088987,-0.4868692864968253,9.544889524927122
1520530733.388819,0.1114004976757641,-0.0226473974422195,-0.0052771800397181,0.2045438101373522,-0.5168407725848027,9.483040864112503
1520530733.393835,0.1267291420718611,-0.0276153246880546,0.0022318424757028,0.1756821850264573,-0.5048471205115236,9.491445099753772
1520530733.398851,0.1400442281398454,-0.0349151157965662,0.0097268140948176,0.3368262585622869,-0.4808768624785219,9.588635471516282
1520530733.403867,0.1553893225847057,-0.0294004843705354,0.020021326640396,0.263469628072096,-0.4281089705905153,9.64159450697116
1520530733.408883,0.1652051449739556,-0.0221295137677149,0.0265518030671838,0.2562542217943722,-0.3573591236493683,9.693892224233846
1520530733.413898,0.1757817206369633,-0.0122467135186504,0.0371590755304623,0.2009361069984905,-0.2985969345437663,9.744345549237645
1520530733.418915,0.1883664483912749,-0.0020629999251459,0.0445182865420651,0.1576436693321481,-0.260221069235829,9.763323815680504
1520530733.42393,0.1984436058879036,0.0145411151794023,0.0478728842246736,0.1335923150730691,-0.2434312301087569,9.80886516027408
1520530733.428946,0.2057584521420561,0.0311375913933819,0.0536675289263776,0.137200018211931,-0.2566220557461922,9.790248604569042
1520530733.433962,0.2120627791548402,0.0436535619720265,0.059703463222734,0.1660616433228259,-0.2410354780809751,9.767871746674404
1520530733.438978,0.2236510658771242,0.0599544999543793,0.0676523177107259,0.2033412424243985,-0.2062633092609045,9.745394243956785
1520530733.443994,0.2312099032935914,0.0695505616581931,0.0760986006007408,0.2225823258316615,-0.1966716844330349,9.705684713896517
1520530733.44901,0.2392669396650913,0.076234431862297,0.0839806273993148,0.1937207007207666,-0.1978685770172975,9.696669652956244
1520530733.454025,0.251335034673848,0.0759273771311063,0.0915312866822164,0.1889104298689508,-0.2002664832242648,9.621179454836206
1520530733.459041,0.2646491994520931,0.0689233411362943,0.0974052060112334,0.1937207007207666,-0.2350419301430965,9.560735059829346
1520530733.464056,0.2804687861226738,0.0566768250677628,0.1026933507801621,0.16125137247101,-0.2590222097923098,9.518075156831742
1520530733.469073,0.2975402526257395,0.0429826198132889,0.1047214957553715,0.1816950235912273,-0.2338418531200378,9.5085544631145
1520530733.474088,0.3118502037423111,0.0313270232389068,0.1067703362837326,0.1251743410823915,-0.2518245574528948,9.50795999690106
1520530733.479104,0.3274231647472475,0.0260896628533547,0.1061602921135356,0.0999204191103584,-0.2314372033956194,9.538401667128465
1520530733.48412,0.345518574007321,0.0281393570676772,0.1050600660515627,0.1011229868233125,-0.2446278417131256,9.561645703888168
1520530733.489135,0.35934265590691,0.0325264664978802,0.1010095541127654,0.0626408200087862,-0.2746033551795805,9.659669591329456
1520530733.494151,0.3693978238199478,0.0360321180645368,0.099123740934319,0.0301714917590294,-0.2302326306942602,9.770346037951544
1520530733.499169,0.3771913062033203,0.041000362047393,0.0948183306287513,0.0373868980367531,-0.1930598395282488,9.84345462721205
1520530733.504184,0.3827256865741322,0.0447883416309141,0.0956486005135106,0.0698562262865096,-0.134304487600062,9.883756331462976
1520530733.509198,0.3837382248149603,0.0485694499972104,0.0983810926884623,0.1432128567767008,-0.0899420051916261,9.920187664003748
1520530733.514214,0.3840010026077606,0.0555562212281712,0.1008688930757322,0.1359974504989771,-0.0755517581508841,9.976026772073828
1520530733.519231,0.3840156492668773,0.0648739702219334,0.1033749448687501,0.1624539401839639,-0.1103288909490786,10.045531808923837
1520530733.524247,0.3785021215801042,0.0759444162371462,0.1034696900224835,0.1756821850264573,-0.1103299212086891,10.069808076341747
1520530733.529262,0.3722350894358602,0.0858424728969521,0.1059918560679035,0.1949232684337207,-0.1391107899300314,10.131242489154536
1520530733.534279,0.3632037701716428,0.0957394465457995,0.1085191560693082,0.2442285446648326,-0.1571017363397729,10.215616630587798
1520530733.539295,0.3514016559087919,0.1021445503047163,0.1088605458357724,0.2189746226927997,-0.1642946120209937,10.272814506564984
1520530733.54431,0.3355757259831393,0.1068019569044121,0.1083844269750166,0.2081515132762141,-0.121124713838449,10.30425564262375
1520530733.549326,0.3152325721725914,0.1143641522666085,0.1106443989452527,0.1877078621559971,-0.1223222620424636,10.359076563770545
1520530733.554341,0.2943831316127791,0.1216456926564458,0.1088448928382034,0.1672642110357798,-0.0767533337333764,10.340636811570798
1520530733.559358,0.2735368548162407,0.1297948307485515,0.1094869690501939,0.086692174267865,0.0047944902763266,10.348314399007696
1520530733.564373,0.2506807676331637,0.1414536357141267,0.1050190840499467,0.0181458146294897,0.0479688841371718,10.303615876796457
1520530733.569389,0.2268139024769425,0.150788983380938,0.0975592764053945,-0.0564133835736551,0.1079317122256203,10.240365205850352
1520530733.574406,0.2036975505027689,0.1592577571431737,0.0873859403760872,-0.0997058212399972,0.0971428201736299,10.186176346086643
1520530733.579421,0.1810764963842606,0.1636531718829347,0.0750161805386932,-0.1105289306565828,0.1331178758156974,10.116517974163846
1520530733.584437,0.1617147135912596,0.161635764788955,0.0639441749014673,-0.1021109566659053,0.1690914328983313,10.090833791598552
1520530733.589453,0.1410837266813649,0.1520498804493976,0.0498406978076351,-0.1490110974711094,0.2470392131587871,10.087727849885292
1520530733.594468,0.1196856001206779,0.1325558983841891,0.0359335818789922,-0.1995189414151752,0.3105975893181823,10.026563857701348
1520530733.599485,0.0985213539964833,0.10170457408971,0.0195043858368929,-0.1983163737022213,0.3573639721713197,10.035803700047936
1520530733.6045,0.0763603963120922,0.074337086972426,0.0077030139419149,-0.1790752902949581,0.4221160564761812,10.02974255505454
1520530733.609516,0.0511804615091592,0.0431745920852918,-0.0019572902156219,-0.22838056652607,0.4269164582283811,9.972110587300062
1520530733.614531,0.0252479474706254,0.0120074312451257,-0.0099929188279375,-0.2019240768410832,0.3969358871238382,9.988152324898993
1520530733.619548,-0.0019291818555821,-0.010418686053962,-0.0179595212646088,-0.2608498947758269,0.4568974976327469,9.988667405701396
1520530733.624564,-0.0306126104846745,-0.0325576517143461,-0.0245683707968365,-0.2740781396183203,0.507262425675698,9.971314889760311
1520530733.629579,-0.058531894670529,-0.0482909614251361,-0.0292358913507586,-0.256039623924011,0.4377108762182826,10.056043644248396
1520530733.634595,-0.0871977324191749,-0.0602438519584218,-0.0311676526668297,-0.250026785359241,0.424519863260918,10.110618747546308
1520530733.639611,-0.1166042274236904,-0.0637527140153811,-0.030869177171899,-0.2764832750442281,0.3693614643031471,10.185307261463196
1520530733.644626,-0.1495278945696492,-0.0666809138264059,-0.0302891754846494,-0.2428113790815174,0.2758258887979344,10.266420805140072
1520530733.649643,-0.182453318051161,-0.0696032861888884,-0.0318735409646096,-0.1442008266192933,0.2398439959784515,10.31198182885937
1520530733.654658,-0.2136116011246532,-0.0675758029850067,-0.0318001056817987,-0.0407800033052536,0.1978660264020459,10.31101612088045
1520530733.659674,-0.2457799173015321,-0.0684596451519495,-0.0328292179426033,0.0602356845828782,0.1247105931368348,10.282212770933617
1520530733.664689,-0.273411799607666,-0.0641164612667007,-0.0265219764973859,0.1083383931010362,0.1043214595402322,10.242251553000358
1520530733.669706,-0.2975227187088198,-0.0548052502806688,-0.0250533028539261,0.0325766271849372,0.1486955557842778,10.18600065224624
1520530733.674722,-0.3324581721188144,-0.0542172273386139,-0.0320181754420254,-0.0287543261757143,0.0875441708484158,10.236629436457134
1520530733.679738,-0.3424982306960609,-0.0396257156771956,-0.0416280044981375,-0.0732493315550104,0.1762840275996582,10.061492255353343
1520530733.684754,-0.3616028222851828,-0.0384428935328865,-0.0507822016489207,-0.0888827118234119,0.269818198205402,9.952311680928815
1520530733.68977,-0.3774426853257641,-0.0390078270613606,-0.0596852588181873,-0.0455902741570695,0.3549537965089904,9.973888010940904
1520530733.694784,-0.3864932537656624,-0.0354863483217021,-0.0701930696968528,0.0181458146294897,0.3489531304138025,9.9511927545164
1520530733.699801,-0.3897550262964802,-0.0284798309673584,-0.0755445661649201,0.0085252729258582,0.3393607563062162,9.909458567329915
1520530733.704817,-0.3970459776049458,-0.0255448026799007,-0.0844368149016966,-0.1201494723602145,0.3261802332648864,9.964182492993354
1520530733.709833,-0.3912557467432269,-0.0109419893018819,-0.0959698687952106,-0.2584447593499188,0.2794245276477128,9.938844867766074
1520530733.714848,-0.3889902544215006,-0.001001978307065,-0.1078025038237807,-0.2752807073312742,0.2638370133828498,9.870457446667356
1520530733.719864,-0.3839608748738577,0.0071842526553427,-0.1172186982570818,-0.2079369154058528,0.2338532578395107,9.864020477217634
1520530733.72488,-0.3749076444057127,0.0138983823553934,-0.1204309200835436,-0.0624262221384246,0.1451055336512423,9.805745642737794
1520530733.729896,-0.3663653777824073,0.0118591244284892,-0.1193801666883307,0.0025124343610885,0.0287838549421056,9.725039062756874
1520530733.734913,-0.3580813216930383,0.0031106396076287,-0.1156746185729547,0.0518177105922004,-0.0479649722148664,9.657229643810666
1520530733.739927,-0.34627918396888,-0.01090469812109,-0.1033581514501103,0.1828975913041812,-0.1451055554474499,9.630481342146606
1520530733.744943,-0.3324673691562019,-0.0290146570710675,-0.0851245315979436,0.2273925966834773,-0.182282373991939,9.56616658709352
1520530733.74996,-0.322684603755284,-0.0520746292562163,-0.0688150578950074,0.3103697688772999,-0.2398475768533137,9.549145051125024
1520530733.754975,-0.3073538267223636,-0.0640743920036745,-0.0470204569442512,0.2574567895073261,-0.2722202472470191,9.503205887598758
1520530733.759991,-0.2910131498840756,-0.0737477837280975,-0.023316116932795,0.2153669195539378,-0.3225808669315989,9.481583941692
1520530733.765006,-0.271654993531023,-0.0813773885706989,-0.0006839995870325,0.1528333984803325,-0.3561519284690003,9.438063875864833
1520530733.770024,-0.2492789617012801,-0.0866718220041857,0.0208781181783458,0.158846237045102,-0.348957554228346,9.432187614776108
1520530733.775038,-0.2263948279362333,-0.0861303552389855,0.0395077593484598,0.2045438101373522,-0.3273765856855689,9.472396812923082
1520530733.780055,-0.203012714758098,-0.0885003515424274,0.0573025985312316,0.1877078621559971,-0.2949984830139172,9.427205497338765
1520530733.78507,-0.1773720288273466,-0.0905664223216164,0.0707667259554514,0.1720744818875956,-0.2854041420470744,9.41224043695346
1520530733.790086,-0.1457022291877628,-0.090574412993263,0.0782832039084995,0.1636565078969178,-0.2890009076975608,9.372812985922742
1520530733.795101,-0.1160421105688298,-0.0879512609597256,0.0823063267687884,0.1444154244896547,-0.2254449666972452,9.405478322563466
1520530733.800118,-0.086123824537923,-0.0783260406428035,0.0831357862024213,0.0770716325642335,-0.1750758239558872,9.449084019780958
1520530733.805134,-0.0544427889378789,-0.0637363961381611,0.0802121284808007,0.0602356845828782,-0.1702779510227314,9.491080395565817
1520530733.81015,-0.0242731412952657,-0.0470865261747523,0.0694610017148394,0.0470074397403847,-0.1019259166285872,9.458602468131138
1520530733.815164,0.0056456034801845,-0.0301453701395922,0.058712564757459,0.0542228460181084,-0.0755453892732916,9.4410743530158
1520530733.820181,0.035318949665599,-0.0070772247450773,0.0450352744599378,0.038589465749707,-0.0215828526401727,9.50509181596516
1520530733.825197,0.0637326771321288,0.0133665107639575,0.0318814018027893,0.0710587939994638,-0.0359750665401712,9.52454625873437
1520530733.830212,0.0903864346272628,0.0338124708084718,0.0176486126249351,0.0433997366015228,-0.0887350909911519,9.492326895241025
1520530733.835229,0.1170366715870288,0.0513431287179217,0.0039346843857875,0.0770716325642335,-0.1163179432086566,9.524566079181968
1520530733.840244,0.1394079559372742,0.0604066645392451,-0.0041543152177997,0.1468205599155625,-0.1558950094592278,9.589005835540751
1520530733.84526,0.1610218624547179,0.0647982829533759,-0.0087603873698104,0.20694894556326,-0.1642936754213477,9.627941662537635
1520530733.850277,0.1768529477496656,0.066855832240637,-0.0131029636731563,0.2081515132762141,-0.2014671222071112,9.622155487226856
1520530733.855292,0.1899200046564158,0.0671552501803686,-0.0142071937815603,0.1720744818875956,-0.2638196144256428,9.651621043416103
1520530733.860307,0.1979537420569221,0.063671984465137,-0.0180364484925749,0.2310002998223392,-0.2938027143492298,9.730102518019358
1520530733.865322,0.2017277564944126,0.0671708040568447,-0.0182873182138309,0.2923312531829907,-0.3921370057272795,9.790032931579486
1520530733.87034,0.2040021951174918,0.0729833552190859,-0.0122950473072539,0.3079646334513921,-0.4161210317750766,9.834065622891265
1520530733.875356,0.2037564750130625,0.0738428417240668,-0.0068769934100291,0.2478362478036946,-0.3657524509935063,9.845061059052064
1520530733.880371,0.2007508312341037,0.0808334320504604,-0.0062769468915407,0.1937207007207666,-0.2866049683498499,9.915239247453911
1520530733.885388,0.1937224342443633,0.089292481483872,-0.0105281435003854,0.1780873204523654,-0.1451051808075915,9.979171348638047
1520530733.890403,0.190474159676717,0.1029862743445959,-0.0104175910883076,0.1035281222492203,-0.0491681400167569,10.02280284130261
1520530733.895418,0.1839486308733224,0.114078907900744,-0.0187079018144272,-0.0383748678793458,0.0707569542003523,9.99966208099734
1520530733.900434,0.1776602834998439,0.1167302297937536,-0.0303096994886108,-0.0407800033052536,0.1331124435377508,9.962436078934198
1520530733.90545,0.1693596519279549,0.1173381586271083,-0.0408411413901861,0.0758690648512796,0.1762724137640484,9.928718561529726
1520530733.910466,0.1623050352071985,0.1071515120380462,-0.0463167990424494,0.1299846119342071,0.1870604628763575,9.88401983967697
1520530733.915481,0.1529888113364401,0.0949148180541773,-0.0482867211357218,0.1263769087953454,0.1462899694602137,9.858527545387917
1520530733.920497,0.1424050965623783,0.0753966607656167,-0.0516626162248835,0.1468205599155625,0.0923270581872364,9.860705467603346
1520530733.925513,0.133827240419861,0.052381948362807,-0.0547983762280296,0.1059332576751284,0.0839362596621425,9.804166571139849
1520530733.930529,0.1257566824924034,0.0302299315558746,-0.0535996660873698,0.0674510908606018,0.0755452738171195,9.727847817341774
1520530733.935545,0.1134110140051865,0.0077935976502543,-0.0556417954872219,0.0337791948978911,0.0779461771429538,9.699119621387732
1520530733.940561,0.104083217062529,-0.0137710433623261,-0.056330126830895,-0.0167286490461746,0.0539673023932094,9.664770301916056
1520530733.945576,0.0922410714553592,-0.0350394569544881,-0.0591759350237552,-0.0275517584627602,0.033582758134872,9.631193351518784
1520530733.950594,0.0821739776304593,-0.0484572814665776,-0.0554718854745261,-0.0311594616016219,0.0395787412318301,9.657951930938854
1520530733.955609,0.0718597249478395,-0.0572057676868445,-0.0544372587960847,-0.0010952687777732,0.0071996083005677,9.672798748092786
1520530733.960625,0.0592846139171063,-0.0671286908579039,-0.0504313190945261,0.0433997366015228,-0.0503625974419401,9.728204699091515
1520530733.965639,0.0457132774641584,-0.0723985965872576,-0.0431413923841141,0.0806793357030952,-0.1271104879992662,9.749997415184444
1520530733.970656,0.0331477910212656,-0.0791337723037226,-0.0326178972425205,0.1492256953414705,-0.1558951967791569,9.816762640454847
1520530733.975673,0.0228512075987556,-0.0812088232078975,-0.0209808496618105,0.1913155652948588,-0.1690890195354595,9.837284417387618
1520530733.980688,0.0120554058911555,-0.0838806802680298,-0.0042069427830536,0.1865052944430432,-0.2086602788682259,9.875720576297793
1520530733.985703,-0.0002433549360738,-0.0851056750288293,0.0160979765085951,0.2117592164150761,-0.2062639648806566,9.91847175774045
1520530733.99072,-0.0112882129992276,-0.0866142777285352,0.0336928801395654,0.1756821850264573,-0.2362396656670405,9.844474929844456
1520530733.995734,-0.0170472648412723,-0.0834659447358576,0.0540190109058037,0.1203640702305757,-0.2830018338217711,9.811356791998447
1520530734.000751,-0.0208009363254922,-0.0820563900897902,0.071081518623199,0.1504282630544244,-0.2590213668526285,9.78198717994732
1520530734.005767,-0.0230470774990879,-0.0803526748899764,0.0873318113985724,0.1179589348046679,-0.2290403274482626,9.761355391813645
1520530734.010783,-0.0222791303273991,-0.0803989991116909,0.1046453485664373,0.1287820442212532,-0.1906686768387321,9.726348308823244
1520530734.015798,-0.0215145272710968,-0.0830685125101093,0.1222094238624171,0.1444154244896547,-0.1870724731480333,9.709922619712886
1520530734.020815,-0.0187500402698346,-0.0903855505105922,0.1345938239851496,0.185302726730089,-0.1499023044610304,9.693218382918584
1520530734.025831,-0.0142248815493817,-0.0979998397291864,0.1494076470227843,0.2165694872668919,-0.1391124758093941,9.65803920877168
1520530734.030847,-0.0084384340184163,-0.102409863731986,0.1647846821742704,0.1865052944430432,-0.1451058364273437,9.688553424688283
1520530734.035862,-0.0029014309406682,-0.1030210608695027,0.1761328957195339,0.1756821850264573,-0.1139273424789277,9.709546958551572
1520530734.040877,0.0048994688147105,-0.0992482206695981,0.1829109748046783,0.1023255545362664,-0.0683542931313982,9.738107987003346
1520530734.045893,0.0109397478371232,-0.0925440136088613,0.1829509044082872,0.0518177105922004,-0.0395709892509764,9.752517262681888
1520530734.05091,0.0154795023619471,-0.0770835644101639,0.1773788630968857,0.0373868980367531,0.0299802792265452,9.765373485178932
1520530734.055926,0.0225292578343634,-0.0621976153999574,0.1690922494231395,0.0482100074533384,0.0947330191511589,9.789610018390215
1520530734.060942,0.0260576188821735,-0.0493512795962491,0.1602555164862222,0.0770716325642335,0.1283067031675691,9.76605347645261
1520530734.065956,0.0290811868523654,-0.0364978563929461,0.1487142580368352,0.1143512316658059,0.1450917656364468,9.827267878527511
1520530734.070973,0.0326087559763242,-0.0242342896438235,0.1398730789292988,0.1239717733694376,0.191857492869832,9.842236505250217
1520530734.075988,0.0393985014572886,-0.0157588986896023,0.1315380241020129,0.1768847527394113,0.1834593888674997,9.83708109232533
1520530734.081005,0.0406560619868821,-0.0110787716295803,0.1250781583489801,0.2021386747114444,0.1930505453955462,9.83566378747216
1520530734.08602,0.0439201397738525,-0.0098973849770107,0.1196700653696666,0.2033412424243985,0.207440136816536,9.905366687597883
1520530734.091038,0.0406420936142529,-0.0130813133361724,0.1112647560608501,0.1287820442212532,0.2002511011938637,9.885180825955867
1520530734.096052,0.0403831970610456,-0.0136415994831978,0.1028738538405641,0.1684667787487337,0.1750660615233618,9.89179197894336
1520530734.101068,0.0388719815914652,-0.0127527395821453,0.0972018596221949,0.2021386747114444,0.1546780518463343,9.872889812863162
1520530734.106085,0.036101500242963,-0.0139040636498515,0.0915166374230152,0.2141643518409839,0.1234994642379537,9.84956028603501
1520530734.1111,0.0310688864166453,-0.0165182954713718,0.0877183215780381,0.1877078621559971,0.07553590782066,9.810351676402924
1520530734.116115,0.024519909615714,-0.0220316662466472,0.0782191114056671,0.2706850343498195,0.0683346027426257,9.82001033913298
1520530734.121132,0.0169698186193108,-0.0284370667715954,0.0752082003720823,0.2875209823311748,0.0311599383773224,9.83615273321882
1520530734.126147,0.0086680304872143,-0.033386568457772,0.0724803508307606,0.21296178412803,0.0083820772502827,9.809009209261736
1520530734.131162,0.0006201404298352,-0.0351249144396426,0.0676121213373631,0.1937207007207666,-0.0155992326585411,9.804571301132672
1520530734.136178,-0.0096838916902505,-0.0313212846232133,0.0603554179111786,0.1865052944430432,-0.0227935132392308,9.8151078430947
1520530734.141195,-0.0194856750599913,-0.0266382052963472,0.0512106290230717,0.1816950235912273,-0.0371828236803268,9.782628664673265
1520530734.14621,-0.0277765879358525,-0.0205012547551056,0.0434268847013909,0.1865052944430432,-0.058767725941617,9.776792172782958
1520530734.151227,-0.0338069953035632,-0.0137740931797929,0.0332084729777762,0.140807721350793,-0.1043315029526514,9.70406633070284
1520530734.156242,-0.0413444037219536,-0.0064647532831445,0.0229973077644087,0.0782742002771874,-0.118716317715447,9.646581827997048
1520530734.161258,-0.0456159388279891,0.0002638259120277,0.0125050830819937,0.110743528526944,-0.1462990762729871,9.68464343676551
1520530734.166273,-0.0521392212257178,0.0139832908002187,0.002611504748253,0.2622670603591419,-0.1834842305543249,9.732014895249744
1520530734.171289,-0.0536293684014464,0.0282663693528626,0.0005588691008409,0.2899261177570829,-0.1702958400759691,9.7747321425263
1520530734.176306,-0.0541180603381332,0.0396352680236766,-0.0012473183968511,0.137200018211931,-0.1714830856838783,9.755301262855744
1520530734.181321,-0.0526081503238243,0.0431412142572551,-0.0044699924635787,0.1083383931010362,-0.2038576292768756,9.735857309147988
1520530734.186337,-0.0478306969055328,0.046646255119672,-0.0068870962451299,0.1877078621559971,-0.1726861598258042,9.694379334205694
1520530734.191353,-0.0435476671072613,0.0527582627642176,-0.0036017949984262,0.1997335392855366,-0.1678905347317988,9.655906855795202
1520530734.196368,-0.0387593189035582,0.0582760433681759,0.0040068609655353,0.1985309715725824,-0.1702887219186599,9.681488066522949
1520530734.201385,-0.028437558672876,0.0667069215427088,0.0127096634542286,0.2550516540814183,-0.1391154729282612,9.615827464614153
1520530734.206401,-0.0218979987142343,0.0646413808840979,0.0232332569921552,0.3248005814327473,-0.1619045732510523,9.638413667871554
1520530734.211416,-0.0115947232602993,0.0570351835915048,0.0358719782273397,0.2935338208959448,-0.1163348020022837,9.589863518369944
1520530734.216432,-0.0028010363062796,0.0511905429197073,0.0433864662918862,0.2466336800907407,-0.0947466216422328,9.569380376288134
1520530734.221448,0.0095104422251842,0.0465193746142752,0.0484683995087615,0.1889104298689508,-0.0455773686040045,9.55478640468251
1520530734.226464,0.0165438102999761,0.0415562110773104,0.0530168190372225,0.1901129975819047,-0.0179972325254731,9.623314298122269
1520530734.23148,0.0255866085279052,0.0386459102038821,0.052977786146359,0.1841001590171351,0.0035877633957815,9.57919030503758
1520530734.236496,0.0331227114910241,0.0357313764418646,0.0542942830746297,0.1925181330078127,-0.0179974198454023,9.574480841932212
1520530734.241512,0.0386519874787656,0.0354385157811497,0.0556345215568572,0.1985309715725824,-0.0515738200007857,9.66975086239504
1520530734.246526,0.0494579664954581,0.0345642252011565,0.0572310585756691,0.2165694872668919,-0.1067356843772466,9.641737621252872
1520530734.251543,0.0552356872670146,0.0342809325998648,0.0550537336879092,0.1841001590171351,-0.0899451896304224,9.630415847484697
1520530734.256558,0.0642809122527222,0.0357530545329147,0.0507193127422699,0.1492256953414705,-0.0731545075636689,9.68419754526564
1520530734.261576,0.0698111683806895,0.0407255114333704,0.0445242816748355,0.1564411016191944,-0.0851464737575852,9.69459830390755
1520530734.266591,0.077362192463225,0.051225592392843,0.0418848520888287,0.1624539401839639,-0.1175237334895558,9.678301335426092
1520530734.271606,0.0826455523973794,0.060573817764625,0.0338298127530008,0.1456179922026086,-0.1031327371690969,9.708666916954764
1520530734.276622,0.0949636055222524,0.0678814660451848,0.027098873047915,0.1023255545362664,-0.0623585910143339,9.73577785239866
1520530734.281638,0.0997376364454944,0.0722759575419043,0.0190069747083667,0.0915024451196808,-0.0455697821468723,9.748650410653411
1520530734.286654,0.1042586945158891,0.0746270167366928,0.0122527109744288,0.1155537993787598,0.0107879445542405,9.76230707803078
1520530734.291669,0.110787277377325,0.0725978976314722,0.0092490097172938,0.1925181330078127,0.0563492864061956,9.792891406291924
1520530734.296685,0.113040345852814,0.0670661198681215,0.0078498411074636,0.2009361069984905,0.0407598052820762,9.79050038439875
1520530734.301702,0.1137791487328124,0.0548231660709705,0.0096488926259556,0.2057463778503061,0.0995173113894484,9.814801289588411
1520530734.306717,0.1165287773972758,0.0411160645399427,0.0144090997866426,0.2237848935446154,0.1258969958050627,9.852950738767758
1520530734.311733,0.1145007331015036,0.0239046505775658,0.0213158648329795,0.2514439509425563,0.0923189097703167,9.831795672793
1520530734.316748,0.1127228820608372,0.0037700201939201,0.0317170289496653,0.2213797581187075,0.1139057788908632,9.863445137861078
1520530734.321765,0.1071798218532312,-0.0111116959276971,0.0386481128042774,0.1456179922026086,0.0935262922706138,9.915336769168816
1520530734.326781,0.0988773162448155,-0.0216200849955406,0.0442649474150117,0.1227692056564837,0.0971254930801798,9.920204233040046
1520530734.331796,0.0885684697990045,-0.0283376206975709,0.0485616864414351,0.1083383931010362,0.0767412298017361,9.935472443889251
1520530734.336812,0.0790083331455943,-0.0370865399822806,0.0498654588459638,0.1203640702305757,0.1235067697151921,9.935309789094251
1520530734.341828,0.0669390815766303,-0.0423369157706212,0.0501183919233159,0.0818819034160491,0.1355011710681878,9.928699793782084
1520530734.346843,0.0538650777073316,-0.0461256637271894,0.0484904860489925,0.0734639294253716,0.1307052649942885,9.943894277938917
1520530734.351861,0.0390324211183018,-0.0499165577346849,0.0474069390293709,0.1299846119342071,0.1702724969485773,9.92935982464101
1520530734.356876,0.0267175004311331,-0.0516733313753238,0.0487691994373142,0.1660616433228259,0.1750662488432909,9.997570488890153
1520530734.361892,0.0093817467350968,-0.0511075537880633,0.0525934920562718,0.1540359661932864,0.1414912535873765,10.052341046801704
1520530734.3669071,-0.0074543966460548,-0.0511170640336273,0.0537069460990552,0.1143512316658059,0.0935287274296933,10.012099048836088
1520530734.371923,-0.0205198226510088,-0.0490803067375411,0.0529351396186273,0.034981762610845,0.0971323302575952,10.002408778954502
1520530734.376939,-0.0335847193960183,-0.0461672105663728,0.0513583647064245,0.0638433877217399,0.0983292228418578,10.026531711299624
1520530734.381955,-0.0466456133998091,-0.0406331105117042,0.0503426893538104,0.110743528526944,0.0731436212115683,9.991235451596667
1520530734.386971,-0.0617129854711451,-0.0333565899550863,0.051237907570533,0.1997335392855366,0.0251710734376734,9.989253907036892
1520530734.391986,-0.0732590101719686,-0.0252110933186164,0.0545681739804971,0.1420102890637467,-0.0623616817931655,9.968982520334636
1520530734.397001,-0.0868202632925325,-0.0199773158751377,0.0567977597399308,0.1059332576751284,-0.0659562932644663,9.911229982334218
1520530734.402018,-0.0956110570114472,-0.0158984647127249,0.0557630346651563,0.1468205599155625,-0.0827474436310427,9.913172669073658
1520530734.407034,-0.106409516683684,-0.0109513466302415,0.0566325339037898,0.1347948827860232,-0.0407765922119462,9.919059512535275
1520530734.41205,-0.1139457960667844,-0.0083289258265848,0.0555843597861108,0.113148663952852,-0.0527663105667122,9.901849737630158
1520530734.417065,-0.1204745945380333,-0.0048355997742216,0.0558937175107814,0.1576436693321481,-0.0491723547151637,9.83400879317993
1520530734.422082,-0.1229778210109277,0.0003995959888198,0.059184951029882,0.140807721350793,-0.0455736222054207,9.770251238470095
1520530734.427098,-0.1219606214030485,0.006799522945413,0.0632901804521261,0.1179589348046679,-0.011995910810533,9.734414430462412
1520530734.432113,-0.1196926827943675,0.0120482442608314,0.0622438118946519,0.1540359661932864,0.0059883857417221,9.780531496849644
1520530734.437129,-0.1181845369798736,0.0126330609108029,0.0617043659338407,0.1347948827860232,0.0047907438777428,9.740044908694044
1520530734.442145,-0.1104033372804573,0.0056414275154301,0.0621776352568021,0.1516308307673783,0.0335688028001473,9.69336721559332
1520530734.447159,-0.1016110459577654,0.0033137972410458,0.0621435152598292,0.1347948827860232,0.0815357309761665,9.651647130461413
1520530734.452176,-0.0940740177727764,0.0015669868814033,0.0626572668416345,0.0590331168699242,0.0803424911305232,9.638439990904889
1520530734.457193,-0.0797587701246287,0.0001382575739168,0.0542326254156831,0.040994601175615,0.0911361598407079,9.546795670314724
1520530734.462207,-0.0672003286846029,-0.0004206494958218,0.0471706497880658,0.0169432469165358,0.0995320160038898,9.535400146526312
1520530734.467223,-0.0523830988821479,-0.0021398379884501,0.0384723059343609,0.0806793357030952,0.0779425244043346,9.495287932198762
1520530734.47224,-0.0380686431578514,-0.0041513363505225,0.0300432183377903,0.0963127159714967,0.0503610770862988,9.478892645908896
1520530734.477256,-0.0245062883954359,-0.0079252774332655,0.0267425644212996,0.2177720549798458,-0.0263933696685489,9.490568856418232
1520530734.482272,-0.0074137418021253,-0.0038348284879238,0.0251186750577766,0.2310002998223392,-0.1582998465035753,9.58005381258988
1520530734.487287,0.0081787938250168,0.0040342874061616,0.0267730368937209,0.1672642110357798,-0.1798794101468833,9.584181660549625
1520530734.492302,0.0212559693218514,0.0116175900971476,0.0259949298139578,0.1768847527394113,-0.1738844573095358,9.596865756898374
1520530734.497318,0.0340771885546775,0.0180454542583697,0.0214207545736105,0.2033412424243985,-0.1594968327478024,9.609377797082413
1520530734.502336,0.0433900643779185,0.0261954805494601,0.026065012431561,0.2574567895073261,-0.2122632260763756,9.635631831417257
1520530734.507351,0.0539597832544338,0.0334667465189057,0.0325940886885348,0.2550516540814183,-0.2338475663778781,9.692621343393338
1520530734.512366,0.0602547836009846,0.0392816014008816,0.0383083461268694,0.1732770496005495,-0.2266463549598083,9.677140255835758
1520530734.517382,0.0695700743856108,0.0474236149502262,0.0459286088397335,0.1780873204523654,-0.2014647807079963,9.66544743994362
1520530734.522399,0.0748599146735082,0.0500182775884574,0.0570311971507726,0.2261900289705234,-0.1810831399085614,9.692850813820582
1520530734.527414,0.0796396771486044,0.0467835959076119,0.068631348993965,0.185302726730089,-0.1223220747225344,9.743163678147262
1520530734.532429,0.0821573110780162,0.0435494849890269,0.0796946095547968,0.1516308307673783,-0.0443753247216892,9.743415412675969
1520530734.537444,0.0849153803766743,0.0336194558467895,0.088541905263027,0.1444154244896547,-0.0251885159872957,9.727196918227463
1520530734.542461,0.0854067028845594,0.0207783374870871,0.096018441148097,0.1456179922026086,-0.0263877500706732,9.702781359471688
1520530734.547477,0.0884147145708097,0.0126090972923015,0.1002793284145924,0.1660616433228259,-0.0311859039837228,9.750234952992422
1520530734.552494,0.0886611206945098,0.0056006700403899,0.1059069714578168,0.1095409608139903,-0.0311815019653868,9.765892962049309
1520530734.557509,0.083378650724525,0.0006399664925608,0.1077728014675602,0.034981762610845,-0.0191842908134532,9.780552709605868
1520530734.562524,0.0803630608433322,-0.000824693490014,0.1102021997833792,-0.0263491907498063,0.01799383897054,9.814815592639222
1520530734.56754,0.0765860159405867,-0.0046061564362009,0.1072042956685108,-0.0287543261757143,-0.0035905013309623,9.819508626675448
1520530734.572557,0.0720641777427339,-0.0031495491373511,0.1066827203221401,-0.0010952687777732,-0.0083892172037995,9.806460504238231
1520530734.577573,0.0647788835385907,-0.0028675757003773,0.1091333914454291,0.0433997366015228,0.0059970024584648,9.839715559751818
1520530734.582588,0.057231513289442,-0.0098674001769962,0.1104467685756448,0.0446023043144769,0.0107934704921517,9.88037421573606
1520530734.587604,0.0481844417921253,-0.0122114903987213,0.1139628825776516,0.0157406792035821,0.0227871225654307,9.839968405300128
1520530734.59262,0.0403928960964182,-0.0154299703556845,0.1177405396032744,0.0229560854813057,0.0731504583889838,9.820092615491356
1520530734.597635,0.0313418649798453,-0.0206879058503386,0.1212344227521853,0.1119460962398979,0.1199100040647057,9.885423042475564
1520530734.602652,0.0215349105122852,-0.0285736964747284,0.1266035195744326,0.113148663952852,0.1187107699813282,9.904006810025896
1520530734.607668,0.0144867898737961,-0.0396599917330424,0.1305902990227838,0.0830844711290033,0.1522890433360035,9.842673065363948
1520530734.612682,0.0061753143712412,-0.0548217920647584,0.1329250135177499,0.0494125751662926,0.1738761934364438,9.825547599524104
1520530734.6177,-0.0008793964577023,-0.0673497129071129,0.1312192137256272,0.0722613617124177,0.2086494861760898,9.784616254216091
1520530734.622715,-0.0054184374383381,-0.0787147532402181,0.1308703685215358,-0.005905539629589,0.1822744847587053,9.713349883185709
1520530734.62773,-0.0084513006177149,-0.0865614640115921,0.1226995690203959,-0.0323620293145758,0.1618911580799076,9.734545864370276
1520530734.632747,-0.0124822317987846,-0.0891636471138609,0.1145706519479137,-0.1129340660824906,0.1523043099102325,9.684205123879192
1520530734.637763,-0.0157527546817975,-0.0868112694544576,0.1062075812599794,-0.1309725817767999,0.1391151701521598,9.678582842686236
1520530734.642778,-0.0160034614683236,-0.0789104778439722,0.0938229600751529,-0.0624262221384246,0.0659622657059927,9.722148454424495
1520530734.647793,-0.0170013804434734,-0.0672270817627789,0.0833624604404736,-0.0022978364907271,-0.0179822469311379,9.761157949794107
1520530734.652809,-0.0174898880959165,-0.0526391131014548,0.0764403548590636,0.0554254137310623,-0.0695497808161919,9.794348563345736
1520530734.657825,-0.0209904180400908,-0.0354298651609948,0.0695438577246958,0.0686536585735557,-0.1391009556337489,9.811719788714818
1520530734.662841,-0.0222283411648608,-0.0199789647504342,0.066688010007547,0.038589465749707,-0.1367003332878084,9.813172220401194
1520530734.667857,-0.0229691591121878,-0.0059731351681698,0.0594913790828878,-0.0311594616016219,-0.0971232670372371,9.856811851784784
1520530734.672874,-0.0242178515886126,0.0051230228164891,0.0506501753762681,-0.0528056804347931,-0.0515542450681853,9.80351948601489
1520530734.677889,-0.0257230374532525,0.0112604463641527,0.0436654672139654,-0.0167286490461746,0.0131965279971718,9.757781575788076
1520530734.682906,-0.0284835726995206,0.018564372605415,0.0361508932174551,0.0590331168699242,0.0371734358876598,9.702400004599928
1520530734.68792,-0.0287315116846984,0.027041377390876,0.0262056312663588,0.1155537993787598,0.0431647359863882,9.687898292801014
1520530734.692936,-0.0267240534769272,0.0305642744500974,0.0167594681473602,0.0698562262865096,0.0611554014162358,9.644164074596144
1520530734.697952,-0.028998884129801,0.025923817276638,0.0083411765189105,0.0614382522958321,0.0875371463510711,9.6360852768481
1520530734.702968,-0.0270077034829426,0.0177927901062794,-0.001735001804274,0.1059332576751284,0.11631305109429,9.637948413526772
1520530734.707984,-0.0212358711540456,0.0157728452383152,-0.0082543995383111,0.1708719141746417,0.0851303424474673,9.648968182842436
1520530734.712999,-0.0199771266708063,0.0198636473641412,-0.012283798398852,0.1865052944430432,0.0647437376699087,9.689510934273809
1520530734.718016,-0.0184667305185155,0.0245387738622302,-0.0168503096038474,0.1732770496005495,0.0323679764973718,9.747778459765197
1520530734.723032,-0.0174497386561873,0.0353298647981153,-0.020287018987194,0.1937207007207666,0.0431586480886895,9.787081844196154
1520530734.728048,-0.0124153488336614,0.0452556617514668,-0.0264433241578228,0.2057463778503061,0.0611448178402366,9.879918769880671
1520530734.733063,-0.0098891095149876,0.0580914056980591,-0.0314905476590375,0.2658747634980039,0.0659366965356583,9.94557104509285
1520530734.73808,-0.0068674037849291,0.064218946548388,-0.0341549225058044,0.2201771904057534,0.0803299406952674,9.889056751409315
1520530734.743095,-0.0035911374221898,0.0750189363258942,-0.0405718372535064,0.1528333984803325,0.0851317473469362,9.90132899675438
1520530734.748109,0.0021964902617691,0.0849472139390741,-0.0475411802816528,0.16125137247101,0.0899276534208355,9.873350929101138
1520530734.753127,0.0092408708229462,0.0931189354933914,-0.0512796446871986,0.2105566487021219,0.0743349878579198,9.844994768296647
1520530734.758143,0.0150356610792669,0.1050723361762654,-0.0528225082001533,0.2141643518409839,0.0431570558692914,9.80663930545863
1520530734.763158,0.0195721498683675,0.1143969563872525,-0.0522186786973278,0.164859075609872,0.0635462831258586,9.815234341684397
1520530734.7681751,0.0268629365532447,0.1155602506896582,-0.0503295000596491,0.1468205599155625,0.0395648795570701,9.774758265918116
1520530734.773191,0.0376712050975656,0.1170199500522794,-0.0497973619419655,0.137200018211931,-0.0215905327572695,9.780722262442351
1520530734.778206,0.0457181307432431,0.1193468925372783,-0.0470890534451587,0.0951101482585425,-0.027582956775573,9.745111323532733
1520530734.783222,0.052758759430715,0.1202136048393748,-0.0433078098982097,0.0626408200087862,-0.0491649555779606,9.711746233490375
1520530734.788237,0.0613066087108107,0.1204974103890677,-0.0392632669656065,0.089097309693773,-0.064755841601549,9.71963893133878
1520530734.793254,0.0693421808265331,0.1134956774142873,-0.0350028218232992,0.1347948827860232,-0.0563654177163135,9.73778025708734
1520530734.79827,0.0791360528220236,0.1059118645737129,-0.0307500899145103,0.1576436693321481,-0.0503714951385766,9.7259305747768
1520530734.8032851,0.0871738634791498,0.0986100058988259,-0.0232453171066977,0.1552385339062403,-0.0479730269718216,9.755005245066632
1520530734.8083,0.0969730123455612,0.0939356677447735,-0.0173470789694055,0.1636565078969178,-0.0539693847086382,9.822333505712605
1520530734.813316,0.1040071723442044,0.0895552732623946,-0.0127942132703254,0.1708719141746417,-0.0239914360831039,9.792018299083107
1520530734.818332,0.1102871261375817,0.0842975161072407,-0.0071644330737551,0.1323897473601152,0.0155831950083878,9.769111393609128
1520530734.823348,0.1142966401169676,0.0743847331572713,-0.0045420265876099,0.1191615025176218,0.0227790678084756,9.763422413423225
1520530734.828364,0.1250986634465349,0.0720600758204239,-0.0053915180584571,0.1167563670917137,0.0371689402093592,9.732053904701164
1520530734.833381,0.1359031017374876,0.0697274057418307,-0.0032650046743907,0.1143512316658059,0.0479613913400042,9.701851047951074
1520530734.838396,0.1386629391680918,0.064181984699275,0.0004752652913597,0.0722613617124177,0.0239818609705076,9.69647339193989
1520530734.843412,0.1449325587615715,0.0531045497400091,0.0030845789268247,0.0433997366015228,0.0107935641521162,9.739766502331976
1520530734.848427,0.1534646636728299,0.044074248451279,0.0032703405869038,0.110743528526944,0.0359702680857693,9.726302879551447
1520530734.853443,0.1582252200942077,0.0341712304718161,0.002374250256519,0.1420102890637467,0.0263747095393868,9.701602879759765
1520530734.858458,0.1602256685568125,0.0271802463232558,0.0017760706311159,0.1059332576751284,0.051559468229995,9.701929475328308
1520530734.863474,0.1660008802587965,0.0245636922104175,0.0003925987485831,0.0626408200087862,0.0443679974482432,9.746519343655478
1520530734.86849,0.172020138041451,0.0190443177462091,-0.0050717591488354,0.0830844711290033,0.0635526520034511,9.759085231764647
1520530734.873507,0.1689871807538868,0.0088563327215427,-0.0094727007898348,0.1011229868233125,0.0899323364190652,9.821639703982592
1520530734.878522,0.1707409094426601,0.0065332300026694,-0.0121992114942231,0.0482100074533384,0.1103218446555263,9.808189120247476
1520530734.883538,0.1722432530584197,0.0047957116071114,-0.0160029928883258,0.0638433877217399,0.1067232058057479,9.82547262184497
1520530734.888554,0.1692220844525677,0.002471466664014,-0.0189911817464602,0.0253612209072136,0.1546918198611298,9.85601615289032
1520530734.893571,0.1651852099104828,-0.0059649628637227,-0.024729647462023,0.0217535177683516,0.1558912412644364,9.839780083361282
1520530734.898585,0.1641698568142127,-0.0114929215316406,-0.0280165699406346,0.0421971688885689,0.1438982448109096,9.851214230336724
1520530734.903601,0.1619074185505278,-0.0123694180755301,-0.027477946895319,0.0470074397403847,0.1498935722881156,9.872080154590712
1520530734.908618,0.1551189629277898,-0.0147024241624308,-0.0277536759453713,0.0361843303237991,0.0875391132103277,9.91059705622876
1520530734.913632,0.1493361417052939,-0.0170364932893004,-0.0274901800967064,0.0157406792035821,0.0755493011955971,9.885240568587689
1520530734.91865,0.1445610719228182,-0.0158662699558106,-0.029907333076424,0.0193483823424438,0.04077394793673,9.857347909355388
1520530734.923665,0.1367628027386378,-0.0211113298446035,-0.0310150637741906,0.034981762610845,0.0491667133210804,9.899024740598987
1520530734.928681,0.1282157414502623,-0.0222758448557854,-0.0326313628996114,0.0397920334626609,0.0719500067260666,9.875712823843156
1520530734.933697,0.1211746697467711,-0.024604578811821,-0.0345299006017998,0.0554254137310623,0.0875376146508941,9.86159972924874
1520530734.938714,0.1133846255869723,-0.0246083593646809,-0.0342448862844876,0.0446023043144769,0.0803436150500983,9.897738553372868
1520530734.943729,0.1045890763928192,-0.0254896010458575,-0.032882490746414,0.0710587939994638,0.0695492907201613,9.862627247558162
1520530734.948745,0.094530568296526,-0.0301549632731432,-0.0331699370764158,0.0698562262865096,0.0575579801459972,9.891704244862565
1520530734.953761,0.0847233982191529,-0.0365765469503905,-0.0304951837866329,0.1143512316658059,0.0611519359975458,9.861051906947344
1520530734.958776,0.0751684913825699,-0.0435866286752243,-0.0256609762235306,0.0698562262865096,0.0911339120015576,9.850996464965904
1520530734.963791,0.068379408459569,-0.0506007264065742,-0.0189380813451042,0.0518177105922004,0.095931878594678,9.829086628325136
1520530734.968808,0.0620915157670241,-0.0584880523776517,-0.0124933350650505,0.0662485231476479,0.1199135631433603,9.7847613106027
1520530734.973823,0.0522845181775014,-0.0660810016126129,-0.0076631069492961,0.089097309693773,0.194258489855631,9.835600749482762
1520530734.978839,0.0454949138588181,-0.0710444811868955,-0.0049828389122211,0.1420102890637467,0.2074449134747304,9.879234334528585
1520530734.983856,0.0372006372069152,-0.0748481124027313,-0.0003970569229712,0.16125137247101,0.1906554489875166,9.904630591368084
1520530734.988871,0.0304171448049666,-0.0766121896253346,0.004472032219719,0.0698562262865096,0.1858660054511744,9.95782133095334
1520530734.993888,0.0241307575804611,-0.079821337676234,0.005000338154899,-0.009513242768451,0.2314395230985268,9.916712247434097
1520530734.998903,0.017341380667984,-0.081858588649435,0.003103556814749,0.0061201374999504,0.2889970458428049,9.937422544592517
1520530735.0039191,0.0077874970935895,-0.0838961942025268,0.0009413635346822,0.1095409608139903,0.276997586851721,9.910860436139531
1520530735.008935,0.0022589699077366,-0.0827277230977975,-0.0009332974834189,0.1179589348046679,0.3009797397002263,9.936322280952377
1520530735.013949,-0.0072909540474016,-0.0818514833779603,-0.0030732599103898,0.0638433877217399,0.300983954398633,9.956605455713282
1520530735.018966,-0.0140808994096548,-0.0830087533207402,-0.007127739161821,0.0698562262865096,0.2997843456753972,9.991412418396974
1520530735.023982,-0.0218752089745791,-0.0853399679366043,-0.0082132390064917,0.0806793357030952,0.3009826431591287,10.02733236613068
1520530735.028999,-0.0334373700740344,-0.0853364841497758,-0.0111677745909245,0.1071358253880823,0.3237642506847521,9.948026848556658
1520530735.034014,-0.0437417237085138,-0.0868003571877204,-0.0100775707797433,0.0999204191103584,0.3057777062933466,9.9504389068924
1520530735.0390291,-0.0540484060604531,-0.0888419002627762,-0.01088563441049,0.1023255545362664,0.3453491529460422,9.942241900904772
1520530735.044045,-0.0628464643241788,-0.0920564034554993,-0.0087293858671894,0.0590331168699242,0.3729327544432637,9.881042758559763
1520530735.049062,-0.0728984645418117,-0.0932309788038128,-0.0068257880062663,0.0650459554346938,0.3669365840263763,9.837990753667771
1520530735.054077,-0.0821978384697501,-0.0932302510724482,-0.0084317946206348,0.1011229868233125,0.3453492466060068,9.852768521486327
1520530735.059093,-0.091743500951894,-0.0914900558056816,-0.0067774452490597,0.0902998774067269,0.318969000230605,9.878466759450475
1520530735.064108,-0.1020460903865583,-0.0900327992600193,-0.008370469543795,0.0542228460181084,0.2770018952100924,9.839345943573557
1520530735.069124,-0.1058061128586333,-0.0827482060486867,-0.0088489833537879,0.0397920334626609,0.2338339638868041,9.87439281909023
1520530735.074141,-0.1120800057215007,-0.0769251621845744,-0.0079812158781095,0.0325766271849372,0.2230422620358758,9.833798535084366
1520530735.079156,-0.117344253578645,-0.0655552204447811,-0.0108607192172514,-0.005905539629589,0.2050581528035498,9.81094775789437
1520530735.084173,-0.1198458452176121,-0.0565203709298471,-0.0118693199235459,-0.0191337844720824,0.2146523064504633,9.80060786321309
1520530735.089187,-0.1228470471714639,-0.0469102335820888,-0.0101670820536662,0.0157406792035821,0.2230435732753802,9.804908807018856
1520530735.094203,-0.1256007805495955,-0.0410923672200032,-0.0068709356406752,0.0085252729258582,0.2050570288839747,9.852644479569143
1520530735.099219,-0.1278580713082474,-0.038180864909085,-0.0063034124863349,0.0830844711290033,0.2038520815427569,9.83216348818824
1520530735.104235,-0.1286067419108167,-0.0379058012319089,-0.0003477795213843,0.1071358253880823,0.2302312976585482,9.844687245092633
1520530735.109252,-0.1333775149625974,-0.0390914207730676,0.0064158432770632,0.1239717733694376,0.2458188119234111,9.822427437762252
1520530735.114266,-0.1366385583521818,-0.0385266855550833,0.0126489124559379,0.0975152836844506,0.2326303277850907,9.804103508467872
1520530735.119283,-0.1406557838245291,-0.0388327571302636,0.0175239830691916,0.113148663952852,0.2170402847011836,9.869046605580849
1520530735.124298,-0.1454213191952205,-0.035352582079397,0.0229704457530864,0.0626408200087862,0.2014553929153293,9.89047201053694
1520530735.129315,-0.1531997079713259,-0.0280775768984772,0.0254754043703481,0.0470074397403847,0.1906643466841532,9.874364684964664
1520530735.134331,-0.1622282515699329,-0.0146774330425048,0.0255944683323567,0.0554254137310623,0.1426980741278862,9.912680273628895
1520530735.139347,-0.1687477233749486,-0.004482991293473,0.0262255029150491,0.0518177105922004,0.1091224232522196,9.966206752191244
1520530735.144362,-0.1785351384780035,0.0039574927833527,0.0284725417638185,0.0301714917590294,0.1187172325188852,10.019866710387
1520530735.149378,-0.1878171841894022,0.014437865462312,0.0307342087632124,0.0229560854813057,0.1379040412532788,10.015269655480688
1520530735.154394,-0.1958496356638133,0.0226000375287893,0.028376477233452,0.0470074397403847,0.1558892744051799,9.992937279133251
1520530735.15941,-0.2038842433678341,0.0290131740004415,0.0262759530877354,0.0854896065549111,0.1367000305117069,9.986770706984512
1520530735.164425,-0.2134258560546655,0.0345450102773547,0.0266064730888289,0.0650459554346938,0.1786715375505556,9.948578015580788
1520530735.169441,-0.2199602411148357,0.0342517943370459,0.0263458389126725,0.0902998774067269,0.1894618345020149,9.905322359036482
1520530735.174457,-0.2237296804292003,0.0339574761144922,0.0268917084682352,0.086692174267865,0.195457817598973,9.910000203326389
1520530735.179473,-0.2300123315085249,0.0321994232515147,0.029595496997173,0.0578305491569703,0.1882652228976461,9.874261678135325
1520530735.184489,-0.2347853431017094,0.0313139294104626,0.0331147921301153,0.0806793357030952,0.1283064221876753,9.86015202157508
1520530735.189505,-0.2385502974690044,0.0333463168198451,0.0353017217435621,0.0975152836844506,0.1091188641735649,9.822818253678092
1520530735.19452,-0.2410663672113688,0.0304285732672282,0.0363663417067844,0.1143512316658059,0.077939901925326,9.84708980874722
1520530735.199536,-0.2430739077309343,0.0289548375029385,0.0423109697762341,0.1047306899621745,0.075542370358217,9.80418646157102
1520530735.2045531,-0.2458458984796068,0.0216618569989797,0.0449659855584913,0.1071358253880823,0.0563559362636819,9.804181760886165
1520530735.209569,-0.2488679962394599,0.0167064101374326,0.0452043396833854,0.0878947419808191,0.041967749742161,9.776491618958724
1520530735.214583,-0.2503806309331545,0.0123314093394501,0.0465265232228756,0.0734639294253716,0.0371723119680846,9.789420340489247
1520530735.2196,-0.251895590412178,0.0088422170204312,0.0435266416838749,0.040994601175615,0.0227851557061742,9.802533992580162
1520530735.224615,-0.2539098936100484,0.0070982212298151,0.0416232156868794,0.0662485231476479,0.0431685760449366,9.81156545926172
1520530735.229631,-0.2531538800830049,0.0106038720967685,0.0384019417899657,0.0025124343610885,0.0287838549421056,9.858685617492071
1520530735.234647,-0.2531510103092072,0.0164483165571858,0.0322238478904291,-0.0491979772959312,-0.0011906282647385,9.82667813768151
1520530735.2396631,-0.2501248980117422,0.0284152028504575,0.0252752004154343,-0.0311594616016219,-0.0383653862900064,9.790512348771063
1520530735.244678,-0.2491097879187236,0.0415541239192453,0.0156337201088361,0.0085252729258582,-0.0623512855370955,9.778528029151795
1520530735.249694,-0.2408029698510888,0.055560584176739,0.0095024707300144,-0.0191337844720824,-0.0611499909344969,9.74625604539222
1520530735.254711,-0.2322560692541707,0.0622869002938591,0.0016919021197742,0.0265637886201675,-0.0623526904365644,9.709785960006476
1520530735.259727,-0.2254703735685188,0.0669706502379337,-0.00531932333703,0.0794767679901413,-0.1355043773031917,9.69307225185888
1520530735.264742,-0.2159247542083375,0.0655232963605957,-0.0075125414150979,0.1492256953414705,-0.1726831627069371,9.63548455434616
1520530735.269758,-0.2006008495589548,0.06144919033547,-0.0073015888330815,0.1564411016191944,-0.1714845842433119,9.59706240417912
1520530735.274774,-0.1840285464226234,0.0512557730838343,-0.0068691087630218,0.1516308307673783,-0.1918695968014724,9.600615535034729
1520530735.27979,-0.1692178872814466,0.0390212465212887,-0.0061783773313287,0.1504282630544244,-0.181077239330792,9.58434670067884
1520530735.284806,-0.1539008864726497,0.031164969089898,-0.0081606920255468,0.1227692056564837,-0.2218458595476439,9.55095349983878
1520530735.289821,-0.134308022370074,0.025932097717284,-0.0098603873516898,0.1251743410823915,-0.2650151021104363,9.51727001126656
1520530735.294836,-0.114211549143526,0.0212814638792714,-0.011286024057855,0.0999204191103584,-0.2853985224491987,9.559372878570644
1520530735.299852,-0.0923547922954508,0.0189691513280039,-0.0151320562075539,0.0915024451196808,-0.2578176370909506,9.5419957598496
1520530735.304869,-0.0725053406964726,0.0210362886456778,-0.0224581049381544,0.0963127159714967,-0.2542205904605703,9.532648279972392
1520530735.309885,-0.0488934477319031,0.0172742985263479,-0.0287534326404115,0.0662485231476479,-0.2782010574297129,9.56434217993196
1520530735.3149,-0.0285405634289341,0.0196315604202624,-0.0355370999404426,0.1011229868233125,-0.2386321395960613,9.526775538565346
1520530735.319916,-0.0079363802968767,0.0219889207697187,-0.042321233963745,0.1251743410823915,-0.2446297149124175,9.561411602759645
1520530735.324932,0.0121608456636909,0.019677375891795,-0.0467050908423471,0.1540359661932864,-0.2002637670852916,9.580843863074898
1520530735.329949,0.0325024195586674,0.0124131209365017,-0.0513977527903847,0.164859075609872,-0.1487015718182196,9.58998538761308
1520530735.334964,0.0508345672326378,0.0045594818337468,-0.0539267599556611,0.2237848935446154,-0.1475070207330718,9.567329935378778
1520530735.33998,0.0699156794986537,-0.0085460677043331,-0.0537917238673117,0.2682798989239117,-0.1619001712327163,9.552965152911373
1520530735.344994,0.0864811258484928,-0.0213510192355878,-0.0574374400035568,0.2261900289705234,-0.1774857186383227,9.583605774106235
1520530735.350011,0.1002850058256133,-0.0347514777294716,-0.0567537340200168,0.1756821850264573,-0.2002654529646543,9.632929649999086
1520530735.355027,0.1150975585324929,-0.0449433988766957,-0.0571296245747615,0.1239717733694376,-0.2230450936310214,9.611374449740996
1520530735.360044,0.125893642433176,-0.0516388241229364,-0.0580124623252525,0.1095409608139903,-0.2446284973328778,9.641751701334302
1520530735.365058,0.1387039001658417,-0.0557117294102755,-0.0586084801982266,0.1203640702305757,-0.2386336381554948,9.636991933313343
1520530735.370077,0.1477525947006924,-0.0539584209848819,-0.059153035515939,0.1468205599155625,-0.2206485923235228,9.708769807144805
1520530735.375092,0.1525310125306856,-0.0510419766255933,-0.0594102183008995,0.1011229868233125,-0.2470261225599515,9.701105317072962
1520530735.380107,0.1570621342728091,-0.0455046268383459,-0.0591058348029999,0.038589465749707,-0.2686057798632242,9.73311291487754
1520530735.385123,0.1598316630060027,-0.0393742707192874,-0.0628519265101003,0.0241586531942596,-0.2530158304392818,9.777399644404737
1520530735.390138,0.158583535047223,-0.0306215722811242,-0.0671116346688758,0.0458048720274308,-0.2362295503908642,9.792280454044414
1520530735.395153,0.15632744003861,-0.023908959356178,-0.0713850375317331,0.0433997366015228,-0.2278353801070449,9.84110572485972
1520530735.40017,0.1503048068149995,-0.0163294971310208,-0.073480403122382,0.0674510908606018,-0.2110492873785566,9.844341684844355
1520530735.405185,0.1432745162595563,-0.0099130531129306,-0.0766649777447889,0.0734639294253716,-0.1786729642462321,9.870980898349528
1520530735.410202,0.1297074178182954,-0.0067087693255528,-0.0782385961251395,0.0518177105922004,-0.1630824528625021,9.923472865894812
1520530735.415217,0.1156364005350619,-0.0049637903789263,-0.0790107587977917,0.0361843303237991,-0.1175138991932732,9.929391316507964
1520530735.420233,0.101060362768004,-0.0061379526337866,-0.0779103976056885,0.0542228460181084,-0.1007273381649619,9.943145097362702
1520530735.425249,0.0854845790433635,-0.0055743995820057,-0.0730071884660252,0.0951101482585425,-0.0899382587930423,9.972952344200658
1520530735.430265,0.0663901726275961,-0.0050107680456727,-0.068638536992366,0.1732770496005495,-0.0467752914478776,9.947744396281362
1520530735.435281,0.0467910985679673,-0.0067820517941051,-0.0629340072751346,0.1937207007207666,-0.0359846198565599,9.91964343136761
1520530735.440296,0.0297010923697988,-0.0132225161655529,-0.0542937093006563,0.164859075609872,-0.041978074134474,9.972226677357948
1520530735.445312,0.0116032563519469,-0.0196546331863537,-0.0488980951839074,0.1384025859248849,-0.0072009413362796,9.937585959134513
1520530735.450329,-0.0047366757480623,-0.0269602146002415,-0.0435124173859866,0.1420102890637467,-0.0119977840098249,9.932906945505357
1520530735.455344,-0.0258534418303624,-0.0360167022642463,-0.037860664461867,0.1167563670917137,-0.0323812043485872,9.944794069999745
1520530735.46036,-0.0419401384136177,-0.0415724211966994,-0.0330032066671625,0.1023255545362664,-0.004799850690516,9.958853363324746
1520530735.465375,-0.0570162255794484,-0.0421698387565998,-0.0297330986906876,0.1011229868233125,-0.0107954591476158,9.935628035993036
1520530735.470392,-0.0738554974661735,-0.04626674512601,-0.0256747629873249,0.0770716325642335,-0.0311789731463427,9.92077414448396
1520530735.475408,-0.0886772553376607,-0.0465814208758895,-0.0191563478979969,0.0782742002771874,-0.0695515603555192,9.89755697919914
1520530735.480423,-0.1012334503720207,-0.043395682474108,-0.0136976398780008,0.1251743410823915,-0.0647586514004869,9.908717244183707
1520530735.485439,-0.1162914526551609,-0.0297108876102499,-0.0119418760967635,0.0927050128326349,-0.0407733141131854,9.946198500457234
1520530735.490456,-0.1290919916917986,-0.020108960615024,-0.008598160643895,0.1684667787487337,0.0059872618221469,9.939604757900549
1520530735.49547,-0.1406397766603061,-0.0134211150460864,-0.0050084637645777,0.0277663563331216,0.0239853263891977,9.932821701734142
1520530735.500486,-0.1511976324075771,-0.0178047592610441,-0.0017756569160112,0.0061201374999504,0.0119956080344317,9.9504762454556
1520530735.505502,-0.1630104846965133,-0.0204376748656816,0.0003906384771643,0.0289689240460755,-0.0359717884414104,9.924733455960666
1520530735.510519,-0.1713086268594851,-0.0248138771011539,0.0011843317531778,0.0794767679901413,-0.0275817391960333,9.86496431655084
1520530735.515534,-0.1755858544590222,-0.0286035497001701,0.0011633659397656,0.1059332576751284,0.0011955704466544,9.835625142311992
1520530735.52055,-0.1811175924622427,-0.0294733134243555,-0.0012679484673051,0.1143512316658059,-0.0251861744881808,9.829758212609404
1520530735.525565,-0.1873907404553524,-0.0242381376323036,0.0014891941090627,0.1841001590171351,-0.0527718365046234,9.801214759238164
1520530735.530582,-0.1896408568452496,-0.0149110767034672,0.0002118038689053,0.1480231276285166,-0.057565588399337,9.76321983779872
1520530735.535598,-0.1908826533453506,-0.0029597043446925,-0.0015885372883536,0.1468205599155625,-0.1067302520993001,9.777225213215011
1520530735.540613,-0.1913672562968933,0.0104445154307648,-0.0017558878134711,0.1564411016191944,-0.1355103715409258,9.785294644585129
1520530735.545628,-0.1921033776194686,0.0238493651817483,-0.0021933175112186,0.1732770496005495,-0.2110575294554409,9.77009657076304
1520530735.550644,-0.1905807615658395,0.0334598178671213,4.161113157968507e-05,0.1444154244896547,-0.2398346517781996,9.83199918583288
1520530735.555661,-0.188806713385103,0.0436553233558252,0.0014688815340221,0.140807721350793,-0.2506266346090217,9.868071287636198
1520530735.560677,-0.1880493434165633,0.0454002837308685,0.0028335493555718,0.21296178412803,-0.244636552089833,9.89641673640985
1520530735.565691,-0.1847741042481435,0.0497643188205579,0.005836833087602,0.25865935722028,-0.231449566510946,9.891310505717028
1520530735.570709,-0.1807479167459191,0.0517968446274613,0.0090914778632428,0.261064492646188,-0.206267804939205,9.843614637356948
1520530735.575724,-0.1762179005777783,0.0544108795378983,0.0128907271547626,0.2562542217943722,-0.1966743069120435,9.75997773816488
1520530735.580741,-0.1714434031772098,0.0526571587187549,0.0155739798597623,0.2887235500441287,-0.1882828527671975,9.702708462509886
1520530735.585756,-0.1623968648719686,0.0526614315493232,0.0152866319260935,0.2839132791923129,-0.1906807589741649,9.634191128115162
1520530735.590773,-0.1498303003800105,0.0520755725300757,0.0182348544468218,0.2718876020627736,-0.1774892777169774,9.6354574599019
1520530735.595786,-0.1395294241589366,0.0503313020435273,0.0182023802808402,0.2971415240348065,-0.1846860871167112,9.645677965340417
1520530735.600803,-0.1249533824597476,0.0529689428144624,0.0146782214521738,0.3079646334513921,-0.1822886492095669,9.675786023963775
1520530735.605819,-0.1141436163116494,0.0561798630651121,0.01414151449811,0.3392313939881948,-0.2014773311432521,9.678986833787349
1520530735.610836,-0.1025748963473091,0.0623012817999768,0.0149783677068343,0.3873341025063528,-0.2122733413525519,9.726177057706526
1520530735.61585,-0.0879913392357955,0.0675482715573273,0.0163440427721764,0.4246137016079253,-0.2542461596309048,9.704936536655104
1520530735.620868,-0.0734059787346354,0.0739600709927816,0.0179891560746581,0.4342342433115569,-0.2458529259467313,9.696699703149417
1520530735.625883,-0.0605842851602205,0.0771666798702902,0.0193425366057324,0.4354368110245108,-0.2386581770662188,9.740842452317816
1520530735.630898,-0.0475107203748101,0.080956884688994,0.0204293506882533,0.4558804621447281,-0.2794305436816545,9.7371967920304
1520530735.635915,-0.0346862550669159,0.0862031852575528,0.0217982928164947,0.4234111338949714,-0.2878219978265006,9.70846741507318
1520530735.64093,-0.0233674265039431,0.0931979306876866,0.0229128279003203,0.4498676235799582,-0.3333913944354106,9.725686498036575
1520530735.645945,-0.0165708752227112,0.1016507402788058,0.0229646958459726,0.5111985769406099,-0.352582417868211,9.763459000076065
1520530735.650962,-0.0027394112088165,0.1080622443476351,0.0246112093182683,0.5172114155053795,-0.3513837457446211,9.755264297775147
1520530735.655978,0.0055593033360622,0.113021944068761,0.0235514163169728,0.5424653374774125,-0.4005504699638054,9.709742820284886
1520530735.660993,0.0151133711947003,0.1182786196123628,0.0205976915133216,0.5352499311996888,-0.4521129462107712,9.700566180577429
1520530735.666009,0.0241698556021756,0.1267381427518996,0.0184809917823223,0.5713269625883074,-0.4341286496585159,9.661846738306664
1520530735.671026,0.0332229527723018,0.1328673181041611,0.016075961472945,0.5845552074308008,-0.4880909989717057,9.659446315043771
1520530735.6760411,0.0450304890004856,0.1343470789277798,0.00930149350821,0.6013911554121562,-0.4964862931751002,9.652317765903236
1520530735.681057,0.0543283300669463,0.1358149287299645,0.0065898812147068,0.6062014262639719,-0.4653090168062239,9.688267005437831
1520530735.686072,0.063621588146019,0.1311513201308459,0.0084308643600231,0.6266450773841891,-0.428137255899823,9.681058906236531
1520530735.691089,0.0734142330659011,0.124449673613896,0.0097142606698272,0.6699375150505313,-0.4365346106224385,9.693429293076342
1520530735.696104,0.0804436454535679,0.1180361433200771,0.0118166517086292,0.728863332985275,-0.3705864766729959,9.656764969071933
1520530735.701121,0.0924959490393936,0.1072443446238169,0.0173934586490769,0.7613326612350316,-0.3585976012579112,9.63784293588842
1520530735.706136,0.1050483922000483,0.0967535969698146,0.0194544585815756,0.7276607652723209,-0.3729846638598569,9.616103974409189
1520530735.711152,0.1138288438548033,0.0839281109711404,0.022316312368371,0.7805737446422948,-0.3597982402407575,9.54119887612466
1520530735.716167,0.1268793056183781,0.0687695803429927,0.0265051766565835,0.7432941455407224,-0.359795336781855,9.52296742960637
1520530735.721184,0.1419412165345497,0.0553645151093426,0.0290803702950755,0.7108248172909657,-0.4041610036290872,9.509381004231487
1520530735.7262,0.1555010974850932,0.0460375140934751,0.031960033363431,0.730065900698229,-0.4245478893865396,9.51153789000435
1520530735.731215,0.1690667453766705,0.042252646544715,0.0327175678854587,0.7192427912816434,-0.4881014888877403,9.541920953302116
1520530735.73623,0.1856441960180348,0.0358472281478868,0.0331789480645431,0.6350630513748667,-0.522870004969192,9.547422793907073
1520530735.741247,0.1994563951277242,0.0300293232432284,0.0314855412030213,0.5989860199862482,-0.514473212206364,9.509415009735884
1520530735.746262,0.2122628775253773,0.0262616426734706,0.0257513743932334,0.6146194002546496,-0.5072795872454264,9.544120146593418
1520530735.751279,0.2270729290269465,0.0166634170468493,0.0213217415705893,0.6013911554121562,-0.5108759782560546,9.559360281636703
1520530735.756294,0.2398719743919381,0.0067737476796696,0.0166230735529051,0.5508833114680901,-0.4701012701415039,9.593514311144473
1520530735.761311,0.252168155502715,-0.0042860272941718,0.0135397220159324,0.5641115563105836,-0.456911755743573,9.670074193770498
1520530735.766325,0.2649710703109065,-0.0121396471256404,0.0102093450749214,0.5941757491344324,-0.3969570760720443,9.646480221312975
1520530735.771342,0.2742515752965653,-0.0240783993031998,0.0084776544407821,0.6098091294028338,-0.3525900979853078,9.714851283326125
1520530735.776358,0.2830283378602329,-0.0371843433631497,0.0072790967037495,0.6013911554121562,-0.3393988977080141,9.776513985562977
1520530735.781374,0.2887945678716845,-0.0488447442880847,0.0098848976151379,0.629050212810097,-0.2698509073292532,9.81685198598636
1520530735.786389,0.2912920195392829,-0.062549030550383,0.0135633879154913,0.6663298119116695,-0.238676159779421,9.818783014325088
1520530735.791405,0.293533111116685,-0.0806270969018875,0.0182911822430772,0.7096222495780117,-0.2027053188357603,9.832272279566885
1520530735.79642,0.2952658890811013,-0.1016133779888619,0.0208333119968999,0.6915837338837024,-0.1535391565763636,9.828913480641384
1520530735.801437,0.2977554646321499,-0.1214381961864465,0.0250062092975545,0.6915837338837024,-0.1379503310719964,9.82541184736848
1520530735.806453,0.2959734383624143,-0.1430224648958785,0.03269079902868,0.6867734630318866,-0.1283568330448349,9.847530048010352
1520530735.811469,0.2929346121613669,-0.1640208146730941,0.0390294390672751,0.7156350881427814,-0.1103719745327922,9.861177314018004
1520530735.816483,0.2888929193614257,-0.1844418882353653,0.0472682134408833,0.7456992809666303,-0.064806979942218,9.935217465785886
1520530735.8215,0.2861039766974838,-0.2092405217399995,0.0581767668775034,0.7938019894847882,-0.0264382327915899,9.96725187539098
1520530735.826516,0.2820644322628899,-0.230839516739595,0.0710059291401942,0.7456992809666303,0.0155354284264443,10.00602990126352
1520530735.831532,0.2730002755522849,-0.2512742143097847,0.0835827723136485,0.725255629846413,-0.0048483665521763,10.01089734180689
1520530735.836547,0.2646926224388363,-0.2655706022324358,0.0891707068153582,0.7000017078743801,-0.0276300677377643,10.014651797300244
1520530735.841563,0.2551330071811085,-0.2763701396742127,0.0945171060612383,0.6747477859023472,0.0275323585984841,10.0566809962316
1520530735.846579,0.2458286033176317,-0.2854263705141654,0.1017701983670132,0.7228504944205051,0.0503122802447448,10.082919887475844
1520530735.851596,0.2327605270808241,-0.2892347861095644,0.1074470316820231,0.7204453589945973,0.0575073101051513,10.121287032042428
1520530735.856612,0.2164283377993456,-0.2910047899359549,0.1131454939967273,0.7384838746889065,0.0766921519802883,10.137362762127108
1520530735.861627,0.1998496874758112,-0.2898639606692296,0.1199488374714036,0.7697506352257092,0.0778888572446216,10.177732299718445
1520530735.866642,0.1822624114766113,-0.2907610316225178,0.1259268485542944,0.750509551818446,0.0730937941104037,10.22208572823859
1520530735.87166,0.1649273164064073,-0.2901974393284607,0.1305627788609557,0.7204453589945973,0.0754944164563444,10.254916046688884
1520530735.876674,0.1473440039585946,-0.2867171864927453,0.1341392231603793,0.5172114155053795,0.1534543725121975,10.202197428325396
1520530735.88169,0.1262363567969768,-0.2846813944807896,0.1325707141369299,0.752914687244354,0.1030721173757963,10.16392588693354
1520530735.886706,0.1041440494207815,-0.2715915950305659,0.137852196645861,0.8767791616786109,0.0167243599137163,10.216263080441689
1520530735.891723,0.0823077845525199,-0.2579320398294352,0.1480074847283621,0.7204453589945973,0.0730961356095186,10.238648370008312
1520530735.896737,0.0642440522464957,-0.2366709718603266,0.1492855576151021,0.5099960092276559,0.0839047899140386,10.189551896844025
1520530735.901754,0.0456561365248914,-0.2252902227807508,0.1404787808995131,0.3404339617011487,0.2122260212742237,10.160861447690715
